timestamp,gravity_x,gravity_y,gravity_z,gravity_time,lin_acc_x,lin_acc_y,lin_acc_z,lin_acc_time,acc_x,acc_y,acc_z,acc_time,gyro_x,gyro_y,gyro_z,gyro_time
2025-10-02 14:14:53.594514,0.3723967030271888,0.11544445655308665,-9.802252439260483,225.96926604164764,-0.006258019097149373,0.0022108961921185255,0.008266793489456177,225.96926604164764,0.3598516845703125,0.11481124877929688,-9.79892303466797,225.96678404166596,0.001765374094247818,0.0013869665563106537,0.00011458899825811386,225.96926604164764
2025-10-02 14:14:53.740172,0.37255611274391415,0.11521586696617306,-9.802247176766397,226.10831304168096,-0.005519369579851627,-0.0002549294661730528,0.011855814456939697,226.10831304168096,0.36598892211914064,0.11406280517578125,-9.79847396850586,226.10583104164107,-0.00023518409579992294,-0.00010064299567602575,0.00290288170799613,226.10831304168096
2025-10-02 14:14:53.902107,0.3720205443352461,0.11547129892744125,-9.802263548970222,226.25729304167908,-0.005582592599093914,0.004579055076465011,0.004088957905769348,226.25729304167908,0.36658767700195316,0.11481124877929688,-9.79278579711914,226.2548110416392,0.001439710147678852,-0.00018780483515001833,-0.003212043084204197,226.25729304167908
2025-10-02 14:14:54.126466,0.3723033303022385,0.11555383603088558,-9.802250100374222,226.49565904168412,-0.0004766211658716202,-0.0014910491276532412,0.004825707077980042,226.49565904168412,0.37616775512695316,0.11630813598632814,-9.794881439208984,226.49317704164423,0.0017018318176269531,0.0020960147958248854,0.0015149719547480345,226.49565904168412
2025-10-02 14:14:54.255554,0.37249029502272607,0.11524060799740256,-9.802250685095787,226.61484304163605,-0.002310052178800106,0.0010675553977489473,-0.006254181861877442,226.61484304163605,0.370030517578125,0.12289443969726563,-9.804311828613281,226.61236104165437,0.0006643645465373993,-0.00010680931154638529,0.00011250795796513557,226.61484304163605
2025-10-02 14:14:54.542129,0.37177444964647294,0.1149497912451625,-9.802280505895615,226.91280133329565,-0.008330199234187603,0.005250260615721345,-0.005774710178375244,226.91280133329565,0.36434234619140626,0.11585906982421876,-9.80326400756836,226.91031933331396,-0.00016182567924261093,-0.0007925516692921519,0.0012751356698572636,226.91280133329565
2025-10-02 14:14:54.723270,0.37118304032832383,0.11432932857424022,-9.802306233644487,227.09157633333234,0.0003442913666367531,-0.005655344752594829,0.008025888204574585,227.09157633333234,0.37122802734375004,0.10912307739257814,-9.789193267822267,227.08909433335066,0.00014310935512185097,-0.0003133457212243229,0.00010378705337643623,227.09157633333234
2025-10-02 14:14:54.864664,0.3712828084453941,0.11504478109069169,-9.802296293377877,227.23062333330745,-0.005144197605550289,0.0032093082647770645,0.006517306566238404,227.23062333330745,0.3688330078125,0.12229568481445313,-9.796677703857423,227.22814133332577,-0.0002986900508403778,-0.0005370127619244158,-5.5540818721055984e-05,227.23062333330745
2025-10-02 14:14:55.065543,0.37192560017108917,0.11575453257188202,-9.802264718413353,227.43919433333213,0.00035024821758270267,0.0001045372523367405,0.009628025293350221,227.43919433333213,0.36539016723632817,0.11211685180664063,-9.797426147460937,227.43671233335044,-0.0006565372459590435,0.001997209619730711,-0.0010800650343298912,227.43919433333213
2025-10-02 14:14:55.214500,0.3718297789245844,0.11599308069795371,-9.802261794805528,227.58817433333024,-0.0062900326028466225,-0.009265050245448948,0.004389504790306091,227.58817433333024,0.36539016723632817,0.10837463378906251,-9.801767120361328,227.58569233334856,0.0005744379013776779,0.00047063466627150774,-0.0007667336612939835,227.58817433333024
2025-10-02 14:14:55.396044,0.3715273316949606,0.11560714619234205,-9.802278751730919,227.73715333332075,-0.004340936355292797,-0.002292793756350875,0.011889728307724,227.73715333332075,0.3680845642089844,0.11570938110351563,-9.793384552001953,227.73467133333907,9.483657777309418e-06,-0.0010029820259660482,-0.002016860991716385,227.73715333332075
2025-10-02 14:14:55.677091,0.3712895327433944,0.1159165278542787,-9.802287522554398,228.02517945831642,-0.008444110304117203,-0.007533936370164156,0.0008203643560409546,228.0351114583318,0.3706292724609375,0.11481124877929688,-9.803713073730469,228.03262945835013,-0.0005431589670479298,-0.0018527719657868147,0.00035027414560317993,228.0351114583318
2025-10-02 14:14:55.951399,0.37115201354026794,0.11444235342554748,-9.802309741973877,228.32313845830504,-7.363837212324143e-05,0.0006682819314301014,0.004133981466293335,228.32313845830504,0.3706292724609375,0.111368408203125,-9.79847396850586,228.32065645832336,0.0024507646448910236,0.00048128917114809155,-0.0005680816248059273,228.32313845830504
2025-10-02 14:14:56.217760,0.3710702621564269,0.1142533056344837,-9.802310911417008,228.52177745831432,-0.00029141061007976533,-0.003783066300675273,0.008480216860771179,228.52177745831432,0.37437149047851564,0.11930191040039063,-9.792636108398439,228.51929545833264,0.00020575989037752151,-0.0005842787795700133,-0.0003243274986743927,228.52177745831432
2025-10-02 14:14:56.365503,0.37060950156301264,0.11374927564524115,-9.802335469722749,228.7204164583236,-0.0005790205299854279,0.0012116435822099448,0.005958897471427918,228.7204164583236,0.367635498046875,0.11810440063476563,-9.79278579711914,228.71793445834192,0.000603893306106329,0.000802914728410542,-0.0020714285783469677,228.7204164583236
2025-10-02 14:14:56.668178,0.3713103634491563,0.11309510925784708,-9.80231675863266,229.00844191666692,-0.0020283260196447372,0.0012670642230659724,0.007287384867668153,229.00844191666692,0.3698808288574219,0.11750564575195313,-9.803114318847657,229.00595991668524,0.0009321807883679867,0.0019115644972771406,0.001977273030206561,229.00844191666692
2025-10-02 14:14:56.971425,0.37181947320699693,0.11253460795618594,-9.802306233644487,229.33619691664353,-0.0025373626872897148,0.0025760274007916454,0.0017354536056518556,229.33619691664353,0.367635498046875,0.10822494506835938,-9.79847396850586,229.33371491666185,0.0005649016238749027,0.0008757692412473261,-0.0017756959423422813,229.33619691664353
2025-10-02 14:14:57.194635,0.3718538255989552,0.11257480756379665,-9.802303894758225,229.5646319166408,0.0034157606586813927,0.0037333375588059427,0.0035305488109588627,229.5646319166408,0.36404296875000003,0.11511062622070313,-9.799521789550782,229.5621499166591,0.0008915690705180168,0.0015016653342172503,0.00065975496545434,229.5646319166408
2025-10-02 14:14:57.398053,0.3719501950219274,0.11209906348027289,-9.802306233644487,229.7136109166313,0.0012238222360610963,0.0013650050852447749,0.0030826520919799805,229.7136109166313,0.3706292724609375,0.11870315551757814,-9.799671478271485,229.7111289166496,0.0012134714052081108,-0.0015719598159193993,-0.0002727201208472252,229.7136109166313
2025-10-02 14:14:57.569340,0.37213558830320836,0.11171027845703066,-9.802303894758225,229.94204616663046,0.003882514648139477,0.004747555386275053,0.0020324921607971194,229.94204616663046,0.3752696228027344,0.11121871948242187,-9.799671478271485,229.93956416664878,0.0004491540603339672,-0.0011890276800841093,-0.0010962695814669132,229.94204616663046
2025-10-02 14:14:57.799089,0.372475238442421,0.11187991166487336,-9.80228986144066,230.16054916667053,0.0044409968331456185,0.0006860154401510955,0.0003718829154968262,230.16054916667053,0.37497024536132817,0.113763427734375,-9.79413299560547,230.15806716663064,-1.736404374241829e-05,-0.0008480882970616221,0.0009712351020425558,230.16054916667053
2025-10-02 14:14:57.923460,0.37254887681454424,0.1113185698259622,-9.80229103088379,230.28966416663025,-0.003117150664329529,0.004690179582685233,0.005314534306526185,230.28966416663025,0.3686833190917969,0.1119671630859375,-9.795480194091798,230.28718216664856,0.0011827140115201473,0.0004007263923995197,0.0005682478658854961,230.28966416663025
2025-10-02 14:14:58.105142,0.3730512622743845,0.11160235164687038,-9.802271735072136,230.47837116668234,-0.0003262746334075928,0.0012629711721092462,0.010831382274627686,230.47837116668234,0.36973114013671876,0.10927276611328125,-9.793234863281251,230.47588916664245,0.0004279729910194874,0.0016243233112618327,0.0009087487123906612,230.47837116668234
2025-10-02 14:14:58.415760,0.3724776138737798,0.11051980362273753,-9.80230447947979,230.78626216668636,-0.004243360944092274,0.0063870963826775555,0.011913117170333862,230.78626216668636,0.36539016723632817,0.11780502319335938,-9.792486419677735,230.78378016664647,-2.461252734065056e-05,-0.0004110533045604825,-0.0018113101832568645,230.78626216668636
2025-10-02 14:14:58.597580,0.372431493960321,0.1102280458342284,-9.802306233644487,230.91537741664797,-0.007490465976297856,-0.0021528260316699744,0.012516549825668336,230.91537741664797,0.367635498046875,0.11121871948242187,-9.79413299560547,230.9128954166663,0.0014721807092428207,0.00047167250886559486,0.00045488541945815086,230.91537741664797
2025-10-02 14:14:58.820446,0.3721784922480583,0.10992372566834092,-9.802318512797356,231.193472416664,-0.0046927560120821,0.00398937251418829,-0.012019536495208741,231.193472416664,0.3694317626953125,0.11511062622070313,-9.809101867675782,231.19099041668233,0.0003101280890405178,0.0010867244563996792,0.000962970545515418,231.193472416664
2025-10-02 14:14:58.989566,0.3723788690194488,0.10901975526474417,-9.802324360013008,231.3623154166853,-0.0036955133825540545,0.0033964831195771694,0.004897627830505371,231.3623154166853,0.3661386108398438,0.11391311645507814,-9.797725524902344,231.35983341664542,0.0005668457597494125,-0.0005699557950720191,0.00045303767547011375,231.3623154166853
2025-10-02 14:14:59.122322,0.3722193496674299,0.1096861003059894,-9.802323190569878,231.48149941663723,-0.006978834606707097,0.010663640275597573,0.0065430343151092535,231.48149941663723,0.3622467041015625,0.113763427734375,-9.79368392944336,231.47901741665555,0.0004885662347078323,0.0015949276275932789,-0.0018453770317137241,231.48149941663723
2025-10-02 14:14:59.383703,0.3729137430712581,0.10888338723219931,-9.802305648922921,231.74966241663788,-0.0010869242995977402,0.003682549009099603,0.008920512199401856,231.74966241663788,0.3661386108398438,0.113763427734375,-9.797575836181641,231.7471804166562,-0.0006902124732732773,0.001986129442229867,-0.0002793390303850174,231.74966241663788
2025-10-02 14:14:59.555911,0.37293037109076976,0.10879618149250746,-9.802302725315094,231.92843716667267,-0.0009540463238954545,0.00691316306591034,0.0030832368135452273,231.92843716667267,0.3695814514160156,0.11541000366210938,-9.803563385009767,231.92595516663278,-0.0012412848882377148,0.001524825464002788,-0.0030102035962045193,231.92843716667267
2025-10-02 14:14:59.806688,0.373287307061255,0.10815476934425533,-9.802300971150398,232.09728016663576,-0.016878426522016526,0.00950057426467538,0.00412462592124939,232.09728016663576,0.35715728759765625,0.11211685180664063,-9.79847396850586,232.09479816665407,0.0004017106257379055,0.00016508460976183414,-0.00023992639034986496,232.09728016663576
2025-10-02 14:14:59.934152,0.3732688152417541,0.10747226223349572,-9.802307403087616,232.29591916664504,-0.006980552226305009,0.007039609104394913,-0.003950378894805908,232.29591916664504,0.3698808288574219,0.11421249389648438,-9.800270233154297,232.29343716666335,0.004327705595642328,-8.36402177810669e-05,0.0022581659723073244,232.29591916664504
2025-10-02 14:15:00.148947,0.3731576815992594,0.10737683384679259,-9.802312665581704,232.47469516663114,-0.00926443811506033,0.00683565091341734,0.009077802300453186,232.47469516663114,0.36658767700195316,0.11391311645507814,-9.794731750488282,232.47221316664945,0.002217525150626898,-0.00114496611058712,-0.0013108057901263237,232.47469516663114
2025-10-02 14:15:00.389061,0.3728733241930604,0.10759026635438204,-9.802319682240487,232.75278916663956,-0.008531014546751977,0.0160525986738503,0.0002543538808822632,232.75278916663956,0.3650907897949219,0.11960128784179688,-9.792636108398439,232.75030716665788,-0.00028018467128276825,0.0011717048473656178,-0.000952819362282753,232.75278916663956
2025-10-02 14:15:00.549492,0.3734354974329472,0.10802437643520535,-9.802292785048484,232.9117015833035,-0.007296923138201237,0.004092466235160828,-0.001119157075881958,232.9117015833035,0.36479141235351564,0.11600875854492188,-9.801916809082032,232.90921958332183,0.0020355405285954475,0.0005288333049975336,0.0010364472400397062,232.9117015833035
2025-10-02 14:15:00.694826,0.37389128789305687,0.1073829460144043,-9.802282844781876,233.05074858333683,0.0028751490265131,0.009823304023593665,0.0047087627649307255,233.05074858333683,0.3769161987304688,0.11331436157226563,-9.791887664794922,233.04826658329694,-0.0005654464475810528,7.899716729298234e-05,-0.002113395370543003,233.05074858333683
2025-10-02 14:15:00.827380,0.3736490669846535,0.10717224525287748,-9.802296293377877,233.19972758332733,-0.005414740964770317,0.012279363004490734,-0.00216580867767334,233.19972758332733,0.36643798828125,0.11825408935546876,-9.797875213623048,233.19724558334565,-3.2883137464523315e-05,0.0006491380627267063,0.0008334200829267502,233.19972758332733
2025-10-02 14:15:00.975854,0.373410902582109,0.10742864565923811,-9.802301555871964,233.32884358335286,-0.009517659097909928,0.010526057118549944,0.016102647185325624,233.32884358335286,0.36164794921875004,0.10867401123046876,-9.792187042236328,233.32636158331297,0.0014154608361423016,-0.0009008383494801819,-0.0004029618576169014,233.32884358335286
2025-10-02 14:15:01.108930,0.3730917907878757,0.10744672634638847,-9.802313835024835,233.47782258334337,-0.0012650451064109803,0.005119182486087084,0.005037961006164551,233.47782258334337,0.3745211791992188,0.11211685180664063,-9.793085174560547,233.47534058330348,0.0005809292197227478,0.004164242651313543,-0.0009996029548346996,233.47782258334337
2025-10-02 14:15:01.232956,0.37327517408877614,0.1079961636196822,-9.802300386428833,233.5970065833535,-0.0029453521594405177,0.007114453464746475,-0.0026096123456954955,233.5970065833535,0.37092864990234375,0.11690689086914063,-9.801916809082032,233.5945245833136,-0.00023642880842089653,0.0009057863499037921,-0.0018561570905148983,233.5970065833535
2025-10-02 14:15:01.365190,0.37322938308119774,0.10836557974107563,-9.802299216985704,233.7360535833286,-0.005294471047818661,0.008092254102230072,0.012656883001327515,233.7360535833286,0.36643798828125,0.118553466796875,-9.785900115966797,233.73357158334693,0.0019296947866678238,-0.0009639767813496292,0.00027307774871587753,233.7360535833286
2025-10-02 14:15:01.485641,0.37328423727303744,0.1083278926089406,-9.802296878099442,233.855237416632,-0.004900332167744637,0.014566537952050568,0.009361392259597779,233.855237416632,0.36973114013671876,0.11466156005859375,-9.798324279785156,233.85275541665033,-0.002703990787267685,-0.0004763810138683766,0.0015393281355500221,233.855237416632
2025-10-02 14:15:01.652177,0.37350252114236354,0.10868645483627916,-9.802282260060311,234.0141484166379,-0.007663360834121704,0.00866949305869639,0.0042596966028213504,234.0141484166379,0.36898269653320315,0.11735595703125,-9.79997085571289,234.02159841667162,0.00033138319849967957,0.0002747128310147673,0.0008199354633688927,234.0141484166379
2025-10-02 14:15:01.765163,0.37330875903368,0.10865597622469068,-9.802295123934746,234.13333241664805,-0.0010328375548124314,0.007652178034186364,0.0014232122898101807,234.13333241664805,0.3646417236328125,0.113763427734375,-9.798324279785156,234.13085041666636,-0.0011208411306142807,0.001886074896901846,0.0007655024528503418,234.13333241664805
2025-10-02 14:15:01.896566,0.3735707508400083,0.10912521528080106,-9.802279336452484,234.26244741666596,-0.010425841324031354,0.005236994745209813,0.005748982429504394,234.26244741666596,0.3607498168945313,0.11660751342773439,-9.797875213623048,234.25996541668428,-0.0032519393134862185,0.0017398030031472445,0.0005020224489271641,234.26244741666596
2025-10-02 14:15:02.050886,0.37368597753345967,0.10859584126621485,-9.80227758228779,234.42135941667948,-0.00036234464496374134,0.00037754740566015244,0.009343265891075135,234.42135941667948,0.37392242431640627,0.108973388671875,-9.796827392578125,234.4188774166396,-0.0015376289375126362,-0.0020652692764997482,0.0006754682399332523,234.42135941667948
2025-10-02 14:15:02.179133,0.37361080426722765,0.1096103057730943,-9.802272319793701,234.5504744166392,1.2315697968006135e-05,0.00894317016005516,0.002749360799789429,234.5504744166392,0.3788621520996094,0.11466156005859375,-9.803114318847657,234.5479924166575,0.0011068223975598812,0.00039075856329873204,0.002064001513645053,234.5504744166392
2025-10-02 14:15:02.326670,0.3740798240527511,0.10956953058019281,-9.802250685095787,234.6994534166297,-0.002702217623591423,0.005990125257521868,0.0001865261793136597,234.6994534166297,0.37362304687500003,0.11481124877929688,-9.798174591064454,234.696971416648,0.0021321778185665607,0.0011491808108985424,-0.0006614523008465767,234.6994534166297
2025-10-02 14:15:02.462911,0.3743690419569612,0.11034542868845165,-9.802232558727265,234.83850141667062,-0.001943504847586155,0.00820801983587444,0.003759174942970276,234.83850141667062,0.3704795837402344,0.11585906982421876,-9.801916809082032,234.83601941663073,-0.0005049416795372963,0.0005648188525810838,0.0005340734496712685,234.83850141667062
2025-10-02 14:15:02.605959,0.37435095213353636,0.11071098016574979,-9.802229050397873,234.97754783334676,-0.0013266601413488388,0.00230399482883513,0.0009115809202194214,234.97754783334676,0.37272491455078127,0.108973388671875,-9.80236587524414,234.97506583330687,2.526119351387024e-05,-0.0022680119145661592,-0.000882449559867382,234.97754783334676
2025-10-02 14:15:02.738376,0.3742665329575539,0.11038410253822804,-9.802237236499787,235.1066638333141,-0.003487535230815411,0.007121561486274004,-0.007763932943344117,235.1066638333141,0.3688330078125,0.11960128784179688,-9.80131805419922,235.1041818333324,0.001243026927113533,-0.0006987280212342739,0.0014161404687911272,235.1066638333141
2025-10-02 14:15:02.881586,0.37405691027641297,0.11067739522084594,-9.802243083715439,235.2457108333474,-0.0013319957256317139,0.0008407108392566443,0.00601327657699585,235.2457108333474,0.3673361206054688,0.11406280517578125,-9.809251556396484,235.2432288333075,-0.00283203087747097,-0.0012330622412264347,-0.002396578434854746,235.2457108333474
2025-10-02 14:15:03.055804,0.3740412324294448,0.11105456803925336,-9.802236651778221,235.4145548333181,0.004521542228758335,-0.0026799342501908543,0.005559532642364503,235.4145548333181,0.3656895446777344,0.11600875854492188,-9.799372100830078,235.41207283333642,0.000980094075202942,-0.0019096469040960073,-0.0015736748464405537,235.4145548333181
2025-10-02 14:15:03.287560,0.3733234501630068,0.11203152813948691,-9.802253608703614,235.65292183333077,-0.0028439029678702355,0.004276589574292302,0.006474621891975403,235.65292183333077,0.3734733581542969,0.11331436157226563,-9.798623657226562,235.65043983334908,-0.0008612009696662426,-5.874189082533121e-05,-0.0023395721800625324,235.65292183333077
2025-10-02 14:15:03.460935,0.37302535180002455,0.11182912311516703,-9.80227115035057,235.83169683330925,-0.0003003276139497757,0.0002877561002969742,0.01172717571258545,235.83169683330925,0.3703298950195313,0.10942245483398438,-9.792336730957032,235.82921483332757,-0.0008948836475610733,-7.245701272040606e-05,-0.000336203258484602,235.83169683330925
2025-10-02 14:15:03.619050,0.3726362195983529,0.11189206290990114,-9.802282260060311,235.97074341663392,-0.008144184686243535,-0.0005236455705016852,0.0048555278778076175,235.97074341663392,0.3742218017578125,0.11331436157226563,-9.79278579711914,235.96826141665224,-0.0004384629428386688,0.0023809606209397316,0.0016075910534709692,235.97074341663392
2025-10-02 14:15:03.764703,0.37184487204998734,0.11141661118716002,-9.802316173911095,236.12965541664744,-0.009747929759323598,-0.002892306949943304,-0.0013957303762435914,236.12965541664744,0.367635498046875,0.1035845947265625,-9.801916809082032,236.12717341666576,0.0007387492805719376,-0.0023937015794217587,0.002666585613042116,236.12965541664744
2025-10-02 14:15:03.955790,0.37139043375849723,0.11194093284197153,-9.80233020722866,236.31836241664132,-0.0007610882073640823,0.005265353741124273,0.006848258972167969,236.31836241664132,0.3703298950195313,0.116158447265625,-9.792336730957032,236.31588041665964,0.0014202580787241459,-0.0020494998898357153,-0.001033593900501728,236.31836241664132
2025-10-02 14:15:04.085108,0.3709478360787034,0.11122823948040605,-9.80235359609127,236.45741041668225,0.00013053908944129944,0.005828349245712162,-0.0013600623607635499,236.45741041668225,0.3706292724609375,0.10912307739257814,-9.80236587524414,236.45492841664236,0.0014508017338812351,-0.0005659629823639989,0.0004944270476698875,236.45741041668225
2025-10-02 14:15:04.247456,0.37059967093169693,0.11132338464260103,-9.802364705801011,236.61632141662994,0.00901088822633028,0.0009431467484682799,-0.003892491459846497,236.61632141662994,0.3752696228027344,0.11331436157226563,-9.806856536865235,236.61383941664826,0.0015232251025736332,0.0004943216335959733,-0.0023158113472163677,236.61632141662994
2025-10-02 14:15:04.370346,0.3705725910142064,0.1107706309016794,-9.802372891902925,236.73550541664008,-0.0011408283188939095,-0.00030035502277314663,0.0027014136314392092,236.73550541664008,0.370030517578125,0.11286529541015626,-9.800120544433595,236.7330234166584,-7.21062533557415e-05,-0.0002575608959887177,0.0016189692541956902,236.73550541664008
2025-10-02 14:15:04.534242,0.3699547961354256,0.1110442166402936,-9.802392187714577,236.90434908331372,-0.005163420327007771,0.002270126659423113,0.002421916723251343,236.90434908331372,0.3619473266601563,0.11735595703125,-9.798773345947266,236.90186708333204,-0.00043910928070545197,4.1877152398228645e-05,0.0007658239919692278,236.90434908331372
2025-10-02 14:15:04.722293,0.3702620673179627,0.11079425730742515,-9.802384001612664,237.0930560833076,-0.006368787288665772,0.009555474137887359,0.009449100494384766,237.0930560833076,0.37018020629882814,0.11705657958984375,-9.790390777587891,237.09057408332592,0.0004749288782477379,-0.002643299289047718,-0.0017856415361166,237.0930560833076
2025-10-02 14:15:04.866782,0.3703068350628019,0.11135415561497213,-9.802378739118577,237.23210408334853,-0.007161925546824932,0.0071993385907262565,-0.0020851171016693115,237.23210408334853,0.3603007507324219,0.11091934204101563,-9.806706848144533,237.22962208330864,0.0015150690451264381,0.0004968610592186451,-0.0010878564789891243,237.23210408334853
2025-10-02 14:15:05.003982,0.37035814438015224,0.11157414796762169,-9.802369383573533,237.36121908330824,0.0022170083597302438,-0.001103890361264348,0.006143084764480591,237.36121908330824,0.36973114013671876,0.10942245483398438,-9.796228637695313,237.35873708332656,-0.0026801477652043104,0.00244308402761817,0.00040786201134324074,237.36121908330824
2025-10-02 14:15:05.123702,0.37088252998888493,0.11136950455605985,-9.802354180812836,237.49033508333378,0.0034889604896306994,0.003591432943940163,-0.004502356052398682,237.49033508333378,0.3603007507324219,0.11541000366210938,-9.794731750488282,237.49778508330928,0.0017406991682946682,-9.12998802959919e-06,0.0014208231586962938,237.49033508333378
2025-10-02 14:15:05.287714,0.3705107201635838,0.1117824276164174,-9.802365290522577,237.6492470833473,0.0026633336395025255,-0.00026429414749145507,0.002692058086395264,237.6492470833473,0.37736526489257816,0.11076965332031251,-9.802964630126954,237.6467650833074,-0.001093040220439434,0.000402456964366138,-0.00021555321291089058,237.6492470833473
2025-10-02 14:15:05.417273,0.3700376073271036,0.11186888418160379,-9.802379908561708,237.7882940833224,0.006429488696157932,0.0026429688837379217,0.00495434582233429,237.7882940833224,0.3733236694335938,0.11226654052734375,-9.794731750488282,237.78581208334072,1.456448808312416e-05,-0.003132264129817486,-0.001897741574794054,237.7882940833224
2025-10-02 14:15:05.573740,0.3695262683182955,0.11253343851305544,-9.802392187714577,237.9273421666585,-0.003088316582143307,0.0016790371108800174,0.004816351532936096,237.9273421666585,0.36718643188476563,0.1143621826171875,-9.803862762451173,237.9248601666768,-0.00029100291430950165,0.0003799968399107456,0.0014363506343215704,237.9273421666585
2025-10-02 14:15:05.737986,0.3687114222720266,0.1116463702172041,-9.802430779337884,238.10611716663698,-0.00272257324308157,0.0015182843618094923,0.002013196349143982,238.10611716663698,0.360450439453125,0.11466156005859375,-9.794432373046876,238.1036351666553,-0.0009118504822254181,-0.0008010165765881538,-0.0005877697840332985,238.10611716663698
2025-10-02 14:15:05.871261,0.3686912128329277,0.11268963226117194,-9.80242493212223,238.2451641666703,0.001489066556096077,0.001522889044135809,0.002002086639404297,238.2451641666703,0.3722758483886719,0.11585906982421876,-9.793085174560547,238.2426821666304,0.002698043826967478,0.001295915455557406,0.0020298012532293797,238.2451641666703
2025-10-02 14:15:06.033000,0.3685377234220505,0.11183999528177083,-9.802438965439796,238.38421216665301,0.006432558484375477,0.004019083678722382,0.009352036714553834,238.38421216665301,0.3784130859375,0.11690689086914063,-9.795180816650392,238.38173016667133,0.0008002938702702522,-1.068698475137353e-05,-0.000913605559617281,238.38421216665301
2025-10-02 14:15:06.181444,0.36935951303690673,0.11213569994084538,-9.802402127981187,238.54312316665892,0.001569100320339203,0.0005798884760588408,0.004228121638298035,238.54312316665892,0.37616775512695316,0.1167572021484375,-9.795031127929688,238.54064116667723,-4.631374031305313e-05,-3.685959381982684e-05,-0.0011932882480323315,238.54312316665892
2025-10-02 14:15:06.334738,0.3691430198773742,0.11134067961014808,-9.802422008514405,238.70203516667243,0.007324185781180859,0.0024227846693247557,0.005592277050018311,238.70203516667243,0.3680845642089844,0.11705657958984375,-9.801018676757813,238.69955316663254,0.0003735399805009365,0.0006647331174463034,-0.0031666462309658527,238.70203516667243
2025-10-02 14:15:06.479380,0.3691782493516803,0.11168910057283939,-9.802414407134057,238.85101379163098,-0.004835903160274029,0.0007271286752074958,0.013820478916168213,238.85101379163098,0.37137771606445313,0.1119671630859375,-9.79368392944336,238.8485317916493,-0.0004889885894954205,-0.0018397390376776457,0.0009592710994184017,238.85101379163098
2025-10-02 14:15:06.598627,0.36788970574736596,0.11164663516916336,-9.802463523745537,238.9701977916411,0.009924588762223721,0.001368339825421572,0.0017442244291305544,238.9701977916411,0.3722758483886719,0.11810440063476563,-9.799222412109376,238.96771579165943,0.0021841763518750668,0.0009404424345120788,0.0005255523137748241,238.9701977916411
2025-10-02 14:15:06.752672,0.3673259610682726,0.11187496894039214,-9.802485743165017,239.12910979165463,-0.00133696585893631,0.008923865212127567,-0.005571227073669434,239.12910979165463,0.3674858093261719,0.12079879760742188,-9.807155914306641,239.12662779167295,-0.00020124251022934914,0.0003966939402744174,0.002053044969215989,239.12910979165463
2025-10-02 14:15:06.900574,0.36669168435037136,0.11216080642305315,-9.802502115368844,239.25822479167255,0.0030394557863473895,-0.005133371120318771,0.009267836809158325,239.25822479167255,0.3757186889648438,0.10762619018554688,-9.795180816650392,239.25574279163266,0.002755918074399233,-0.0012780551332980394,-0.0032315226271748543,239.25822479167255
2025-10-02 14:15:07.063833,0.3654696528241039,0.11176046401262284,-9.802553570866586,239.43700079165865,0.004710553474724293,-0.0015895564388483763,0.00018711090087890627,239.43700079165865,0.3683839416503906,0.11032058715820313,-9.80565902709961,239.43451879167696,0.0007036584429442883,0.0013573914766311646,-8.476153016090393e-05,239.43700079165865
2025-10-02 14:15:07.177931,0.3656274545565248,0.11175748558714986,-9.802547138929368,239.54625179164577,0.007247148714959622,-0.00023937952704727652,0.007366322278976441,239.54625179164577,0.3704795837402344,0.11106903076171876,-9.79997085571289,239.5437697916641,0.0003037182614207268,0.0006868836935609579,0.00014647236093878746,239.54625179164577
2025-10-02 14:15:07.344157,0.36562427513301377,0.11111382591538131,-9.802555325031282,239.71509579167468,0.003807524107396603,-0.0021404281072318555,0.01485777497291565,239.71509579167468,0.3691323852539063,0.10927276611328125,-9.790241088867187,239.7126137916348,-0.0014690421521663666,-0.0011305299121886492,-0.0007337843999266624,239.71509579167468
2025-10-02 14:15:07.498391,0.3656955380737782,0.11117280056700111,-9.802550062537193,239.86407495831372,0.005831866711378098,0.013218517201021315,0.010813255906105042,239.86407495831372,0.3737727355957031,0.12289443969726563,-9.792187042236328,239.86159295833204,-0.0004681618884205818,0.0013364951591938734,0.0005718893371522427,239.86407495831372
2025-10-02 14:15:07.673246,0.36617500975728035,0.11131158971227706,-9.802534275054931,240.04285095829982,0.013735036477446557,0.005745008150115609,0.009895827770233154,240.04285095829982,0.37497024536132817,0.11870315551757814,-9.79802490234375,240.04036895831814,0.0026684305630624294,0.0026771340053528547,-0.0012593702413141727,240.04285095829982
2025-10-02 14:15:07.843290,0.36690152630209927,0.1107251231186092,-9.802509132027627,240.20176195830572,-0.001361706890165806,0.01052274065092206,0.008078513145446779,240.20176195830572,0.36179763793945313,0.12349319458007812,-9.790989532470704,240.19927995832404,-0.0015789938624948263,0.0017407232662662864,0.002606059890240431,240.20176195830572
2025-10-02 14:15:08.055688,0.3661471623927355,0.11058924844488502,-9.802541291713714,240.4202659583534,0.006727477423846722,0.0019766695238649847,0.00780954122543335,240.4202659583534,0.3680845642089844,0.11361373901367187,-9.796528015136719,240.41778395831352,-0.0005152430385351181,-0.0015545862261205912,0.0006852580700069666,240.4202659583534
2025-10-02 14:15:08.266201,0.36653856039047245,0.11056826242245735,-9.80252608895302,240.61890495830448,0.01037760179489851,0.002746090013533831,0.011237763762474061,240.61890495830448,0.37631744384765625,0.11645782470703125,-9.791438598632814,240.6164229583228,-0.00045395269989967346,0.0006685986299999058,-0.0010903500951826572,240.61890495830448
2025-10-02 14:15:08.420114,0.3655168325453997,0.11034825179725886,-9.802568188905717,240.7877489583334,0.005711231343448162,0.0058102046046406034,-0.001295742988586426,240.7877489583334,0.36898269653320315,0.11017089843750001,-9.80086898803711,240.7852669583517,-0.001183768268674612,-0.002151216845959425,-0.0001479005441069603,240.7877489583334
2025-10-02 14:15:08.591297,0.3648253992944956,0.11088355525396765,-9.802585145831108,240.95659229165176,0.004606290310621262,0.0015326374489814045,0.006807328462600708,240.95659229165176,0.36404296875000003,0.11271560668945313,-9.803862762451173,240.95411029167008,0.000954815186560154,-0.0008063697023317218,-0.0015736836940050125,240.95659229165176
2025-10-02 14:15:08.717474,0.36440527684986596,0.11032663537189365,-9.802610288858414,241.0857082916773,0.004427767507731915,0.010472171371802688,0.005332660675048829,241.0857082916773,0.3694317626953125,0.11406280517578125,-9.79368392944336,241.0832262916374,1.6231555491685867e-05,0.003067310433834791,-0.0002224431373178959,241.0857082916773
2025-10-02 14:15:08.873706,0.3649902176856995,0.11078997239470482,-9.802580468058586,241.2446192916832,0.008632756099104882,0.007164721246808768,0.012789614796638489,241.2446192916832,0.3718267822265625,0.11541000366210938,-9.796528015136719,241.2421372916433,-0.0010541584342718124,-0.0016784754116088152,0.00042713712900877,241.2446192916832
2025-10-02 14:15:09.006997,0.3654905566200614,0.11026708513498307,-9.802570527791977,241.37373529165052,-0.00039973028004169464,0.0018497758079320194,0.007837607860565187,241.37373529165052,0.3649411010742188,0.11061996459960938,-9.79607894897461,241.37125329166884,0.0013754861429333687,-0.0012181960046291351,0.00131336716003716,241.37373529165052
2025-10-02 14:15:09.176406,0.36558681640774016,0.10976600616239011,-9.802568188905717,241.54257829167182,0.0020485720038414,0.004596149045974016,0.00020523726940155032,241.54257829167182,0.3668870544433594,0.11750564575195313,-9.799671478271485,241.54009629163193,-0.0009649749845266342,0.0009308388689532876,0.0013393082190304995,241.54257829167182
2025-10-02 14:15:09.292431,0.36516592651605606,0.11042643089778723,-9.802580468058586,241.66176229168195,0.0032180516794323923,0.0010916751623153687,0.002758716344833374,241.66176229168195,0.3704795837402344,0.11241622924804688,-9.807155914306641,241.65928029164206,0.00020593823865056038,-0.0015367083251476288,0.0011526269372552633,241.66176229168195
2025-10-02 14:15:09.483424,0.3646153746172786,0.11001262161880732,-9.802605611085893,241.85047004168155,-0.005661785826086998,-0.000889525953680277,0.0038310956954956056,241.85047004168155,0.3634442138671875,0.11091934204101563,-9.797575836181641,241.84798804164166,0.00024223746731877327,-0.00046079428284429014,-0.0009419196285307407,241.85047004168155
2025-10-02 14:15:09.614499,0.3645199188217521,0.11051434013061226,-9.802604441642762,241.98951704165665,0.004313162080943585,-0.0018403014913201334,0.008918173313140869,241.98951704165665,0.37212615966796875,0.11630813598632814,-9.799821166992189,241.98703504167497,0.0017448067665100098,0.001746167428791523,-0.0016644373536109924,241.98951704165665
2025-10-02 14:15:09.775977,0.3643820707127452,0.1105428087618202,-9.802609119415283,242.14842904167017,0.006995718441903592,-0.0002221850585192442,0.007276275157928467,242.14842904167017,0.3706292724609375,0.106578369140625,-9.795480194091798,242.14594704163028,-0.0004631658084690571,-0.0004737921408377588,0.0008278870955109596,242.14842904167017
2025-10-02 14:15:09.956469,0.36410220835357904,0.11062674371525646,-9.802614966630935,242.32720404164866,0.0017369519546628,0.0061304401606321335,0.018512869477272036,242.32720404164866,0.3661386108398438,0.11286529541015626,-9.788145446777344,242.32472204166697,0.0009243427775800228,-0.00017232788377441466,0.001220968784764409,242.32720404164866
2025-10-02 14:15:10.103413,0.36432586435228587,0.11026194141246379,-9.802613212466241,242.46625204163138,0.006453096829354763,0.002902731439098716,0.013569048643112184,242.46625204163138,0.3698808288574219,0.116158447265625,-9.794432373046876,242.4637700416497,0.00157547602429986,-0.001885225996375084,0.0012828765902668238,242.46625204163138
2025-10-02 14:15:10.231034,0.3651458998024464,0.11036770292557777,-9.802582806944848,242.6053000416723,0.005034343041479588,-0.003040871908888221,0.009495878219604492,242.6053000416723,0.370030517578125,0.108973388671875,-9.79368392944336,242.60281804163242,0.0016219173558056355,-0.0005356437177397311,-0.0010555647313594818,242.6053000416723
2025-10-02 14:15:10.374069,0.3656958304345608,0.10998587974347175,-9.802564095854759,242.74434704164742,0.008076941706240178,0.004525991594418884,0.010377638339996338,242.74434704164742,0.3728746032714844,0.11720626831054688,-9.792336730957032,242.74186504166573,0.0014813067391514778,-0.0006234959000721574,-0.0003885687328875065,242.74434704164742
2025-10-02 14:15:10.499891,0.365765010304749,0.11038447712548077,-9.802559418082238,242.87346304167295,-0.003518233112990856,-0.002458882089704275,0.010220932960510255,242.87346304167295,0.3637435913085938,0.11555969238281251,-9.792336730957032,242.87098104163306,-0.0005558407865464687,-0.0012149391695857048,0.003798697143793106,242.87346304167295
2025-10-02 14:15:10.665902,0.36599053010344507,0.11014481437392533,-9.802551231980324,243.03237504168646,0.000447421632707119,0.0016726599913090467,0.0024312722682952883,243.03237504168646,0.3646417236328125,0.11630813598632814,-9.799521789550782,243.02989304164657,0.0029863975942134857,0.0008346212562173605,-0.0013541718944907188,243.03237504168646
2025-10-02 14:15:10.792908,0.36607381638139486,0.11032641610130668,-9.802548308372499,243.17142204166157,0.01218961738049984,0.007777993669733405,0.015898579359054567,243.17142204166157,0.374820556640625,0.11570938110351563,-9.794731750488282,243.1689400416799,-0.000611958559602499,-0.0026152601931244135,0.0003465553745627403,243.17142204166157
2025-10-02 14:15:10.978885,0.36640747312456373,0.11043008540757002,-9.802537783384324,243.34026604163228,0.0052695472911000255,0.008542617615312338,0.004208241105079651,243.35019804164767,0.3692820739746094,0.113763427734375,-9.79847396850586,243.347716041666,0.0028483890928328037,0.001106036826968193,-0.0013562929816544056,243.35019804164767
2025-10-02 14:15:11.119750,0.36626681104302405,0.1104918648954481,-9.802537783384324,243.4793140416732,0.00121903482824564,0.0038703177217394116,0.00047128558158874515,243.4793140416732,0.36658767700195316,0.11765533447265626,-9.797276458740235,243.47683204163332,-0.0010645012371242046,0.0007136379135772586,0.0016776099801063538,243.4793140416732
2025-10-02 14:15:11.268322,0.366871632412076,0.11098312237299979,-9.802509716749192,243.6183610416483,0.0028595077246427536,-0.0008122239354997874,0.01032267451286316,243.6183610416483,0.36973114013671876,0.10792556762695313,-9.791139221191406,243.61587904166663,0.0019431174732744694,0.0010934507008641958,-1.061800867319107e-05,243.6183610416483
2025-10-02 14:15:11.434271,0.36684557575732474,0.11032506393268705,-9.802516733407975,243.8070690416498,0.011567473635077477,0.005683685475960374,0.0013495373725891113,243.8070690416498,0.3737727355957031,0.1095721435546875,-9.800419921875001,243.80458704166813,-0.0006007133051753044,0.0007420597248710692,0.000750543549656868,243.8070690416498
2025-10-02 14:15:11.585739,0.36661146786063914,0.11133677842095495,-9.802512055635452,243.95604829164222,0.006562403216958047,0.0030253676511347296,0.005687586665153504,243.95604829164222,0.37242553710937504,0.1167572021484375,-9.799372100830078,243.95356629166054,-0.0013389498926699162,-0.000872128177434206,0.0017483895644545555,243.95604829164222
2025-10-02 14:15:11.735050,0.36692663278430704,0.11096212721429766,-9.802508547306061,244.10502829164034,-0.0042308259755373,-0.004683126378804445,-0.0036007153987884523,244.10502829164034,0.36015106201171876,0.10837463378906251,-9.800270233154297,244.10254629165865,0.001153244636952877,-0.00047690863721072674,0.0003740256652235985,244.10502829164034
2025-10-02 14:15:11.898947,0.367126680649817,0.11113405362702906,-9.802498607039452,244.26394029165385,0.00619698878377676,0.002629383243620396,0.010909734964370728,244.26394029165385,0.3730242919921875,0.11226654052734375,-9.801168365478516,244.26145829167217,-5.4406002163887024e-05,0.0007516592158935964,-0.0021269209682941437,244.26394029165385
2025-10-02 14:15:12.025129,0.36783430337905887,0.11043658129870892,-9.802479895949364,244.3930562916794,-0.003491957187652588,0.0072187531739473345,0.004604097604751587,244.3930562916794,0.37197647094726566,0.11421249389648438,-9.79847396850586,244.3905742916395,-0.0010105036199092865,0.0020165229216217995,0.0006027789786458015,244.3930562916794
2025-10-02 14:15:12.187682,0.36825263511389494,0.1100074870325625,-9.802471125125885,244.5519672916853,0.0052207961305975915,0.004205034272745252,-0.0003461551666259766,244.5519672916853,0.3710783386230469,0.11585906982421876,-9.797575836181641,244.5494852916454,-0.0002655545249581337,0.00196661869995296,-0.003000450786203146,244.5519672916853
2025-10-02 14:15:12.345243,0.36829765867441894,0.11007692271843553,-9.802464693188668,244.7009472916834,0.007870023362338543,-0.004546392895281315,0.01881107747554779,244.7009472916834,0.37077896118164066,0.10912307739257814,-9.789193267822267,244.69846529164352,-0.0009377454407513142,-0.0007665051380172372,0.0006775583606213331,244.7009472916834
2025-10-02 14:15:12.508508,0.36857138145715,0.10979020815342665,-9.802459430694581,244.8697912916541,-0.003779969103634358,0.002925407672300935,-0.002151775360107422,244.8697912916541,0.37018020629882814,0.11256591796875001,-9.797276458740235,244.86730929167243,0.0005009775049984455,0.00020732739358209074,-0.0009307009167969227,244.8697912916541
2025-10-02 14:15:12.663274,0.36894026767462496,0.11042265761643649,-9.802438965439796,245.0386342916754,0.003934335596859456,0.003939525000751018,0.0006712603569030762,245.0386342916754,0.3706292724609375,0.11346405029296876,-9.799222412109376,245.03615229163552,-0.0003877882845699787,0.001158213708549738,0.0005441256798803806,245.0386342916754
2025-10-02 14:15:12.803655,0.36897520478814844,0.11047509069554508,-9.802434287667275,245.16775029164273,-0.004483242966234684,0.012419321592897178,-0.005168938636779786,245.16775029164273,0.3629951477050781,0.11990066528320313,-9.806407470703126,245.16526829166105,-0.0004476262256503105,0.0015487800119444728,-0.002220356836915016,245.16775029164273
2025-10-02 14:15:12.938203,0.37602069765329366,0.11056818019598723,-9.802166485190392,245.29686629166827,-0.1507391729950905,-0.0451542092487216,0.020458238124847414,245.29686629166827,-0.9003776550292969,-0.2674937438964844,-9.669442291259767,245.29438429168658,-0.01602146029472351,-0.05016722157597542,0.20631898939609528,245.29686629166827
2025-10-02 14:15:13.078716,0.4016744061559439,0.10716903842054308,-9.801185907125474,245.44584529165877,3.3200361835956573,0.0995510757341981,0.34041086196899417,245.44584529165877,3.4648448181152345,0.17947677612304688,-10.082283782958985,245.4433632916771,-0.030413959175348282,-0.20805618166923523,0.007563916966319084,245.44584529165877
2025-10-02 14:15:13.216316,0.3766272366419435,0.10505837629549206,-9.802205076813697,245.5749612916843,0.27601558562368156,0.018584507005289196,-0.010489904880523683,245.5749612916843,0.18202148437500001,0.1993853759765625,-9.642049255371095,245.5824112916598,-0.007973264902830124,-0.04245244339108467,-0.00916768703609705,245.5749612916843
2025-10-02 14:15:13.354437,0.37447845797985796,0.10673532119952142,-9.80226764202118,245.72394129168242,0.12398494541645051,0.08306996751576662,0.08597395062446594,245.72394129168242,0.4153861999511719,0.21899459838867188,-9.89861572265625,245.72145929164253,-0.008799305185675621,-0.027505652979016304,-0.0001169736497104168,245.72394129168242
2025-10-02 14:15:13.529312,0.3756888681650162,0.10565870261751116,-9.80223314344883,245.892784833326,0.24207640908658506,-0.03261063432320953,0.08923260390758515,245.892784833326,0.5261558532714844,0.10702743530273438,-9.865384826660156,245.89030283334432,-0.003028936218470335,-0.004941888153553009,0.001385020324960351,245.892784833326
2025-10-02 14:15:13.669435,0.3818509563803673,0.10305602470412852,-9.802023228406906,246.0318318333011,-0.03142969775944948,-0.19915618339553476,-0.06800136387348175,246.0318318333011,0.30267059326171875,-0.039517822265625,-9.854756927490234,246.02934983331943,-0.002491145860403776,-0.004449070896953344,0.002333341632038355,246.0318318333011
2025-10-02 14:15:13.792867,0.38305614061653614,0.10413029526360333,-9.801967095136643,246.16094783332665,-0.01167835146188736,-0.01162263846024871,0.05169172525405884,246.16094783332665,0.3092568969726563,0.09205856323242188,-9.70746322631836,246.15846583334496,0.0025914479047060013,0.009955634362995625,-0.001652995590120554,246.16094783332665
2025-10-02 14:15:13.957429,0.38487685393542054,0.10162056980654598,-9.801920902132988,246.31985983334016,-0.029366069175302986,0.047768782591447234,0.07664413332939149,246.31985983334016,0.36209701538085937,0.1579216003417969,-9.815388793945313,246.31737783330027,0.0007977853529155254,0.0013461669441312551,-0.0031402134336531162,246.31985983334016
2025-10-02 14:15:14.096663,0.38192382730543617,0.10202361655421556,-9.802031999230385,246.46883983333828,0.3448148751631379,0.02206832377240062,-0.20301240384578706,246.46883983333828,0.7138655090332031,0.09445358276367188,-9.74099349975586,246.4663578332984,-0.010121101513504982,-0.024116983637213707,-0.0021720281802117825,246.46883983333828
2025-10-02 14:15:14.246909,0.3756800607964397,0.10115229919552804,-9.802280505895615,246.61781883332878,0.007972057275474072,0.10047838931903244,0.046469576954841614,246.61781883332878,0.4531077575683594,0.1850152587890625,-9.766141204833986,246.6153368333471,-0.002797316061332822,-0.009464598260819912,0.0035005053505301476,246.61781883332878
2025-10-02 14:15:14.398703,0.3740164913982153,0.10123070670291782,-9.802343071103097,246.7667988333269,-0.1193960140272975,-0.024590090839192273,-0.000769493579864502,246.7667988333269,0.34757720947265625,0.06541397094726563,-9.739496612548828,246.76431683334522,0.004436558578163385,0.004510069731622934,0.0009693799074739218,246.7667988333269
2025-10-02 14:15:14.641772,0.3720673951506615,0.09946823713369668,-9.802436626553536,246.9952345416532,0.036732501089572905,0.09767180803231895,-0.15291053652763367,246.9952345416532,0.5465135192871095,0.25641677856445316,-9.865235137939454,246.9927525416715,-0.0034917208831757307,0.0012540231691673398,-0.005953359417617321,246.9952345416532
2025-10-02 14:15:14.772458,0.34189521420747043,0.10492519682273269,-9.803480939269066,247.1442145416513,0.05088802546262741,-1.3262354873120785,1.3195715618133546,247.1442145416513,0.2896476745605469,0.9493258666992188,-8.47163314819336,247.14173254166963,0.006754742003977299,-0.006487585604190826,0.014133946038782597,247.1442145416513
2025-10-02 14:15:14.909655,0.3178416693583131,0.10155856191180647,-9.804325861930847,247.28326154168462,-0.022206299789249897,1.305515440106392,0.019171850681304933,247.28326154168462,0.3308120727539063,1.4364129638671876,-9.724078674316408,247.28077954164473,0.0035873744636774063,0.006696125026792288,-0.00040217814967036247,247.28326154168462
2025-10-02 14:15:15.032590,0.3259865484014154,0.10199364957399666,-9.804051627516747,247.40244554163655,0.002430504821240902,-0.05005166349001229,0.012314236164093018,247.40244554163655,0.33171020507812504,-0.04879852294921875,-9.78694793701172,247.39996354165487,-0.0024308855645358562,0.00771551625803113,-0.0012278761714696884,247.40244554163655
2025-10-02 14:15:15.178635,0.31928015749901534,0.10269073817878963,-9.804263881444932,247.55142554163467,-0.0017903808876872063,0.14594222690910102,0.0246518611907959,247.55142554163467,0.3242257690429688,0.31748977661132816,-9.751172332763673,247.548943541653,0.001134600955992937,-0.026122072711586952,-3.882450982928276e-05,247.55142554163467
2025-10-02 14:15:15.311985,0.3021408537961543,0.10248535472899675,-9.804811765551568,247.6805415416602,0.003972616586834192,0.28071777027100325,0.04615441203117371,247.6805415416602,0.3094065856933594,0.42032592773437505,-9.764344940185547,247.67805954167852,-0.0027160856407135725,0.003053185995668173,-0.00036526983603835106,247.6805415416602
2025-10-02 14:15:15.455860,0.303504479303956,0.10382655068300665,-9.804753293395043,247.81958954164293,-0.010114641543477774,-0.29303310278803113,-0.03129137456417084,247.81958954164293,0.29608428955078125,-0.21689895629882813,-9.8339501953125,247.81710754166124,-0.0047369650565087795,0.0009087422513402998,-0.0012347525916993618,247.81958954164293
2025-10-02 14:15:15.596031,0.30842659235000613,0.10379130293615163,-9.804603019952774,247.9685694166692,-0.009647869281470775,0.022845363914966586,-0.011086320877075196,247.9685694166692,0.29832962036132815,0.1838177490234375,-9.811496887207031,247.9660874166293,-0.00253683072514832,0.008265591226518154,-0.0003008125349879265,247.9685694166692
2025-10-02 14:15:15.763836,0.31054017808288337,0.10466921668499708,-9.804524667263031,248.11754941666732,-0.014156547635793687,-0.09883136571384966,0.010392256379127503,248.11754941666732,0.3070115661621094,-0.00987945556640625,-9.779164123535157,248.11506741668563,0.000653466209769249,0.0056192753836512566,-0.0007292455993592739,248.11754941666732
2025-10-02 14:15:15.905554,0.3107106609642506,0.10465412355959416,-9.804520574212075,248.27646141668083,0.004833162277936936,0.04458553098142147,0.005746643543243409,248.27646141668083,0.3124003601074219,0.14130615234375002,-9.799372100830078,248.27397941664094,-0.0009962404146790504,-0.009439436718821526,-0.0005930792540311813,248.27646141668083
2025-10-02 14:15:16.061991,0.3013309230655432,0.10412653111852706,-9.804818197488785,248.42544141667895,0.0010403110273182392,-0.09514521701261401,-0.010271219015121461,248.42544141667895,0.29937744140625,0.023950195312500002,-9.801018676757813,248.42295941663906,-0.0033970559015870094,-0.004907268565148115,-0.0010054935701191425,248.42544141667895
2025-10-02 14:15:16.187951,0.2963531335629523,0.1037122467532754,-9.804976657032967,248.55455741664628,0.004820609036833048,-0.03814857794903219,0.0160810124874115,248.55455741664628,0.3004252624511719,0.07379653930664062,-9.796827392578125,248.5520754166646,0.0019265059381723404,-0.005739040672779083,-0.0021754903718829155,248.55455741664628
2025-10-02 14:15:16.352919,0.2890824680775404,0.10232705963775517,-9.805203529000282,248.7234014166752,0.007301162369549275,0.04661319005303085,0.000894039273262024,248.7234014166752,0.2939886474609375,0.14160552978515625,-9.804311828613281,248.7209194166353,-0.0017633282113820314,-0.0034639020450413227,-0.001870401669293642,248.7234014166752
2025-10-02 14:15:16.492276,0.2854943607375026,0.10192470724694432,-9.80531462609768,248.86244845832698,-0.003780224919319153,0.008844936937093735,0.02121135950088501,248.86244845832698,0.2796185302734375,0.13217514038085937,-9.79368392944336,248.8599664583453,0.002206644043326378,-0.002913092263042927,-0.00043665943667292595,248.86244845832698
2025-10-02 14:15:16.704582,0.27799972862005234,0.10112453405745328,-9.80553740501404,249.07102045830106,-0.0019738007336854934,-0.06789365633390844,-0.0017664438486099244,249.07102045830106,0.2812651062011719,0.037122802734375,-9.803413696289063,249.06853845831938,0.00018075527623295784,-0.003610442392528057,0.0005248370580375195,249.07102045830106
2025-10-02 14:15:16.837107,0.2748537986911833,0.10112224998883904,-9.805626282691955,249.210068458342,0.0037168739922344685,-0.015051244720816613,-0.0021272170543670654,249.210068458342,0.27797195434570315,0.06541397094726563,-9.81239501953125,249.2075864583021,-0.004827536642551422,-0.0016034176805987954,-0.00017918506637215614,249.210068458342
2025-10-02 14:15:17.004386,0.27751197947189216,0.10079197366721929,-9.805553777217865,249.3689804582973,-0.005976713206619025,0.0911089388653636,-0.008186101913452148,249.3689804582973,0.27303222656250004,0.20088226318359376,-9.799671478271485,249.36649845831562,0.0005485620349645615,0.002994796261191368,0.00036132754758000374,249.3689804582973
2025-10-02 14:15:17.128725,0.2821360489726067,0.1008539176080376,-9.805426307916642,249.48816445830744,-0.007457173392176628,0.07877258378081024,0.013835681676864624,249.48816445830744,0.2743794250488281,0.1580712890625,-9.801018676757813,249.48568245832575,0.00080819521099329,0.0039041340351104736,0.0006061638705432415,249.48816445830744
2025-10-02 14:15:17.306319,0.28861768752336503,0.10172689776867629,-9.805225163698196,249.67687245830894,-0.01244201609864831,-0.08585990251041949,-0.0023792320489883423,249.67687245830894,0.2794688415527344,0.026494903564453127,-9.80131805419922,249.67439045832725,-2.0773150026798248e-05,0.0035761643666774035,-0.002458741422742605,249.67687245830894
2025-10-02 14:15:17.457757,0.2917906973697245,0.10174990290775895,-9.805131608247757,249.82585245830705,-0.003639910016208887,0.05557294255122543,0.007855149507522583,249.82585245830705,0.2832110595703125,0.1478924560546875,-9.799821166992189,249.82337045832537,-0.00235148542560637,0.00446619326248765,0.00016536889597773552,249.82585245830705
2025-10-02 14:15:17.577751,0.29332224760204556,0.10260864875279367,-9.805078983306885,249.94503570831148,-0.0023273380100727083,-0.1306004303880036,0.011094506978988648,249.94503570831148,0.2932402038574219,-0.03143463134765625,-9.802665252685548,249.9425537083298,-0.001882536569610238,7.07784784026444e-05,-0.0011348533444106579,249.94503570831148
2025-10-02 14:15:17.703547,0.289670369066298,0.1022557601518929,-9.805188910961151,250.064218708314,-0.001968684419989586,0.03530816503800452,0.00596708357334137,250.064218708314,0.2866539001464844,0.124541015625,-9.809850311279297,250.06173670833232,-0.002695455215871334,-0.0023648804053664207,-0.0025915801525115967,250.064218708314
2025-10-02 14:15:17.860631,0.2915325976163149,0.10294680054299533,-9.805124591588974,250.22313070832752,0.0005100233852863312,-0.055645192209631204,-0.01071092963218689,250.22313070832752,0.29368927001953127,0.03203338623046875,-9.81523910522461,250.22064870834583,0.0011156820692121983,0.00040773674845695496,0.0002415180206298828,250.22313070832752
2025-10-02 14:15:18.000176,0.2921715521067381,0.10270260619930924,-9.805112312436105,250.36217870831024,-0.0041703803837299346,0.00851613155566156,0.0019962394237518313,250.36217870831024,0.2908451843261719,0.11211685180664063,-9.804910583496094,250.35969670832856,-0.00034888461232185364,0.0017564264126121998,0.00036043114960193634,250.36217870831024
2025-10-02 14:15:18.148394,0.2921416582167149,0.10307910293340683,-9.805110558271409,250.52109070832375,0.0004999186657369138,0.002451481707394123,-0.010281744003295899,250.52109070832375,0.2848576354980469,0.10193801879882813,-9.81284408569336,250.51860870834207,-0.0013121021911501884,-0.0012470200890675187,-0.0006418656557798386,250.52109070832375
2025-10-02 14:15:18.276355,0.2897218062914908,0.10287134405225516,-9.805182479023934,250.6502067083493,0.0008240554109215736,-0.04718712167814374,0.0004209995269775391,250.6502067083493,0.28680358886718754,0.05987548828125,-9.807455291748047,250.6477247083094,-0.0021513120736926794,0.0005766459507867694,-0.0004190760664641857,250.6502067083493
2025-10-02 14:15:18.446692,0.2907018727250397,0.1031354280654341,-9.805150319337846,250.7793227083166,-0.0040479725785553455,0.0806823209580034,-0.007544077634811402,250.7793227083166,0.2974314880371094,0.1874102783203125,-9.810598754882813,250.77684070833493,0.001322127878665924,0.00220982963219285,-0.0011866777203977108,250.7793227083166
2025-10-02 14:15:18.565082,0.29401176223531367,0.1038846847973764,-9.805044484734536,250.9382352916291,0.003569505885243416,0.0597251143399626,0.004622808694839478,250.9382352916291,0.29338989257812503,0.14609619140625002,-9.803713073730469,250.93575329164742,0.0015437263064086437,0.0004647267051041126,-0.00022846460342407227,250.9382352916291
2025-10-02 14:15:18.684876,0.29664246110245585,0.1037590062059462,-9.804964962601662,251.05741929163923,-0.0028035023622214796,-0.19970949444919825,0.004395352005958557,251.05741929163923,0.29144393920898437,-0.0820294189453125,-9.808353424072266,251.05493729165755,0.0009462572634220123,0.003900405252352357,0.001060856506228447,251.05741929163923
2025-10-02 14:15:18.815706,0.29854896403849124,0.10330484200268984,-9.804914091825486,251.18653529166477,0.002475126385688782,0.06719063828699291,0.0020968115329742434,251.18653529166477,0.29877868652343753,0.17318984985351563,-9.79892303466797,251.18405329168309,0.0001657591201364994,0.0007171276374720037,0.0009272303432226181,251.18653529166477
2025-10-02 14:15:18.938574,0.3031760850548744,0.10415103460662067,-9.804762648940088,251.3156512916321,-0.0036489001102745534,-0.09142746593803168,0.0014968872070312501,251.3156512916321,0.29847930908203124,0.017962646484375,-9.8052099609375,251.3131692916504,-0.0016590633895248175,0.004985109902918339,0.0005731857381761074,251.3156512916321
2025-10-02 14:15:19.085322,0.30726471405476335,0.10353565170429647,-9.804638687968255,251.44476729165763,0.0051355729624629025,-0.05967688394710422,0.007513672113418579,251.44476729165763,0.30910720825195315,0.0335302734375,-9.803713073730469,251.44228529167594,0.0013906429521739483,-0.0008119258563965559,0.0016041737981140614,251.44476729165763
2025-10-02 14:15:19.220324,0.3065406825765968,0.10306736282072962,-9.804667924046518,251.57388329168316,0.0036143467202782633,-0.07836872390471399,-0.0023377168178558352,251.57388329168316,0.30491592407226564,0.026345214843750003,-9.804760894775391,251.57140129164327,0.0002444428391754627,-0.0011448212899267673,0.0014753872528672218,251.57388329168316
2025-10-02 14:15:19.386088,0.30066192850470547,0.10175602421164513,-9.804862051606179,251.74272729165386,-0.00352989099919796,0.14762535707093777,0.006689214706420899,251.74272729165386,0.29189300537109375,0.23710693359375,-9.799671478271485,251.74024529167218,0.0010767057538032532,-0.002655632561072707,0.0017173115629702806,251.74272729165386
2025-10-02 14:15:19.582690,0.29012098839506506,0.10144524469971657,-9.805181309580803,251.95129791664658,0.002670076210051775,0.044351541856303814,0.0026686692237854006,251.95129791664658,0.2915936279296875,0.13786331176757813,-9.815987548828126,251.9488159166649,0.0004418804310262203,-0.0019807210192084312,-0.002205030992627144,251.95129791664658
2025-10-02 14:15:19.708501,0.2812262404896319,0.10123994347639383,-9.805444434285164,252.08041391667211,-0.02271387465298176,0.05533444010652602,-0.007997236847877502,252.08041391667211,0.26719436645507816,0.14639556884765625,-9.801617431640626,252.07793191663222,0.0009072069078683853,-0.004545344039797783,0.0002512633800506592,252.08041391667211
2025-10-02 14:15:19.845187,0.2657802173495293,0.10013598916120828,-9.805887653231622,252.20952991663944,-0.0008311817049980164,0.2782771059125662,-7.016658782958985e-05,252.20952991663944,0.2556683349609375,0.39547760009765626,-9.789941711425781,252.20704791665776,0.00042667612433433533,-0.006741720251739025,-0.000533639919012785,252.20952991663944
2025-10-02 14:15:20.011396,0.2685890187509358,0.09976612536236644,-9.805812224149705,252.35850991663756,-0.013369823042303325,-0.07701346722431482,-0.011070533394813538,252.35850991663756,0.21480331420898438,-0.032183074951171876,-9.806407470703126,252.35602791665588,-5.9592537581920624e-05,0.005085444077849388,-0.0003509386442601681,252.35850991663756
2025-10-02 14:15:20.168226,0.27478677498176696,0.09987180464901031,-9.805642070174217,252.53728591668187,-0.0019042371399700642,-0.09328550093807281,0.004174911975860596,252.53728591668187,0.2697390747070313,0.050295410156250005,-9.810898132324219,252.53480391664198,-0.0027294130995869637,0.010192655958235264,-0.0032706651836633682,252.53728591668187
2025-10-02 14:15:20.303351,0.2901649156026542,0.1010673409793526,-9.805188910961151,252.6763339166646,-0.003211601469665766,0.07152377226389944,0.020784512758255005,252.6763339166646,0.2839595031738281,0.16989669799804688,-9.794282684326172,252.6738519166829,-0.0004697488620877266,0.008925593458116055,0.000508943572640419,252.6763339166646
2025-10-02 14:15:20.453557,0.2929163960181177,0.1012075005657971,-9.805104126334191,252.80544991663191,-0.009106581564992666,0.04563713444396854,0.007527705430984497,252.80544991663191,0.28695327758789063,0.15432907104492188,-9.803413696289063,252.80296791665023,-0.00017166323959827423,0.0013285893946886063,0.002159208757802844,252.80544991663191
2025-10-02 14:15:20.595106,0.2957607923448086,0.10209014690481127,-9.805008816719056,252.9643622916774,-0.013747260812669993,0.031132805384695532,-0.0013980692625045778,252.9643622916774,0.2854563903808594,0.17259109497070313,-9.795480194091798,252.9618802916375,-8.143065497279167e-05,0.011659457348287106,-6.145285442471504e-05,252.9643622916774
2025-10-02 14:15:20.721113,0.3175181356072426,0.10331760537810625,-9.804314752221108,253.08354629162932,-0.004818434603512288,-0.3534474485367537,-0.01122256100177765,253.08354629162932,0.3124003601074219,-0.2652484130859375,-9.804012451171875,253.08106429164764,-0.002423148136585951,0.01960819400846958,0.003367100842297077,253.08354629162932
2025-10-02 14:15:20.860904,0.3249355844780803,0.1041989178210497,-9.804065076112748,253.22259429167025,0.0016852040961384774,-0.029055170891806485,0.00993091106414795,253.22259429167025,0.32751892089843754,0.08696914672851563,-9.797875213623048,253.22011229163036,-0.0011990396305918694,-0.007481545675545931,-0.00043724989518523216,253.22259429167025
2025-10-02 14:15:20.994171,0.3165672687068582,0.10388023543171584,-9.804339310526847,253.36164229165297,-0.005663832351565362,0.30896124713122847,-0.0025160568952560425,253.36164229165297,0.3135978698730469,0.43200164794921875,-9.80086898803711,253.3591602916713,-0.0005960352718830109,-0.0048586586490273476,-0.0007938328199088573,253.36164229165297
2025-10-02 14:15:21.209830,0.3055106041766703,0.10324014804325998,-9.804701837897301,253.58014629164245,-0.004336825031787157,-0.249785378202796,-0.0012594902515411378,253.58014629164245,0.2924917602539063,-0.16001724243164064,-9.81853225708008,253.57766429166077,0.00022153975442051888,0.0042829010635614395,0.0006605610251426697,253.58014629164245
2025-10-02 14:15:21.358232,0.29671564266085626,0.10201452596113086,-9.804978995919228,253.72912629164057,-0.0025774161145091057,0.23867698408663274,0.02327250301837921,253.72912629164057,0.28680358886718754,0.33021331787109376,-9.802216186523438,253.72664429165889,0.004206306766718626,-0.008123235777020454,-0.001431264914572239,253.72912629164057
2025-10-02 14:15:21.489553,0.283926192317158,0.10029601100832225,-9.805379530191422,253.8483102916507,-0.020024904627352954,-0.06272411470301449,0.010944818258285523,253.8483102916507,0.26809249877929686,-0.006735992431640626,-9.80326400756836,253.84582829166902,-0.0012297872453927994,-0.014151565730571747,-0.0014759604819118977,253.8483102916507
2025-10-02 14:15:21.680541,0.2961157914251089,0.09992433822713793,-9.805021095871925,254.05688283330528,-0.0033246171846985817,0.08359405162744224,0.0011577486991882324,254.05688283330528,0.29788055419921877,0.19369720458984377,-9.796528015136719,254.0544008333236,-0.0017403149977326393,0.003380289301276207,-0.0001212102361023426,254.05688283330528
2025-10-02 14:15:21.799951,0.29762296607717875,0.10089704082347453,-9.804967886209488,254.17606683331542,-0.013364012371748687,-0.053745057256892326,0.003647493124008179,254.17606683331542,0.2844085693359375,0.027393035888671875,-9.804461517333985,254.17358483333373,0.0003307098522782326,0.001616012305021286,-0.0005341004580259323,254.17606683331542
2025-10-02 14:15:21.974611,0.3008743468858302,0.10100949922576548,-9.804863805770875,254.34491083334433,0.0005987000651657582,-0.16313033659011125,0.0023494112491607667,254.34491083334433,0.29728179931640625,-0.025746459960937502,-9.80281494140625,254.34242883330444,0.0010497341863811016,0.0036845598369836807,-0.0021567163057625294,254.34491083334433
2025-10-02 14:15:22.122522,0.3074781374260783,0.10159189104102552,-9.804655060172081,254.49389083334245,0.0032756832987070085,0.2287711064144969,0.012018367052078248,254.49389083334245,0.29832962036132815,0.33545242309570317,-9.796378326416017,254.49140883330256,-0.001232977956533432,0.003829232882708311,-0.0009420188143849373,254.49389083334245
2025-10-02 14:15:22.268529,0.3063719721324742,0.10162758646532893,-9.80468721985817,254.63293883332517,0.0015376898087561131,-0.14728265541605653,0.003669712543487549,254.63293883332517,0.3074606323242188,-0.060923309326171876,-9.793085174560547,254.6304568333435,0.0011006267741322517,-0.007505777757614851,-2.4211127310991287e-05,254.63293883332517
2025-10-02 14:15:22.392599,0.2982727561891079,0.1020296190865338,-9.80493455708027,254.7620548333507,-0.0036853173002600673,0.014577903477475047,0.0034662294387817383,254.7620548333507,0.2896476745605469,0.12888198852539062,-9.806407470703126,254.7595728333108,0.001267042476683855,-0.004913117736577988,-0.0010380311869084835,254.7620548333507
2025-10-02 14:15:22.548022,0.29172983150929216,0.10129985002800823,-9.805136286020279,254.90110320830718,-0.003279666714370251,0.19238940171897412,-0.00366445004940033,254.90110320830718,0.29144393920898437,0.26689498901367187,-9.812095642089844,254.8986212083255,0.0010000597685575485,0.00042511249193921685,-0.00040167011320590973,254.90110320830718
2025-10-02 14:15:22.680655,0.2950388439372182,0.10224672437645495,-9.805028112530708,255.0500832083053,-0.016468171253800394,-0.10658769727684558,-0.009611068367958069,255.0500832083053,0.28096572875976566,-0.00808319091796875,-9.809251556396484,255.0476012083236,-0.0019427835941314697,0.002180136740207672,-0.00034037185832858086,255.0500832083053
2025-10-02 14:15:22.799373,0.29493463559076194,0.10114622357301414,-9.80504273056984,255.16926720831543,-0.002592582330107689,-0.10758284769952298,0.0014805150032043458,255.16926720831543,0.2915936279296875,-0.022004241943359377,-9.804012451171875,255.16678520833375,0.0017537572421133518,0.0015895140822976828,0.0003908933140337467,255.16926720831543
2025-10-02 14:15:22.979033,0.293614791110158,0.09968315885402262,-9.805096524953843,255.33811120834434,-0.0018715292774140835,-0.01001964256167412,-0.006697985529899597,255.33811120834434,0.28994705200195314,0.0892144775390625,-9.806257781982422,255.33562920830445,-0.00010304898023605347,-0.002200694754719734,-0.001245841383934021,255.33811120834434
2025-10-02 14:15:23.106320,0.29052530508488417,0.1008624326158315,-9.805178970694543,255.47715920832707,-0.004021111931651831,0.07202803979627788,-0.0024265944957733154,255.47715920832707,0.2856060791015625,0.17169296264648437,-9.805060272216798,255.47467720834538,0.0008932589553296566,-0.0018898346461355686,-0.00405885512009263,255.47715920832707
2025-10-02 14:15:23.248709,0.29025958567857746,0.10160066186450423,-9.805180724859238,255.6162072083098,-0.0039049898833036427,-0.02795378386974335,0.00281251072883606,255.6162072083098,0.29144393920898437,0.07499404907226563,-9.79997085571289,255.6137252083281,0.0015032906085252762,-0.0002496581291779876,0.002008019480854273,255.6162072083098
2025-10-02 14:15:23.399806,0.2883099960722029,0.10090209318324923,-9.80524212062359,255.75525520835072,-0.011984617654234172,-0.007496340600773693,0.0025780373811721802,255.75525520835072,0.2832110595703125,0.09610015869140626,-9.805060272216798,255.75277320831083,3.325566649436951e-05,-0.003618628950789571,0.0002793143503367901,255.75525520835072
2025-10-02 14:15:23.548658,0.28567723240703347,0.10150061052292586,-9.80531579554081,255.914168291667,-0.010549327209591865,0.013160958671942355,0.0050438082218170165,255.914168291667,0.2851570129394531,0.13022918701171876,-9.795480194091798,255.91168629168533,-0.00031842757016420364,-0.0027082269079983234,-0.00259895296767354,255.914168291667
2025-10-02 14:15:23.679304,0.2795882892049849,0.10051710885018111,-9.805498228669167,256.05321629164973,-0.0055083146877586845,0.09737134337425232,0.0017869091033935547,256.05321629164973,0.27258316040039066,0.21899459838867188,-9.803713073730469,256.05073429166805,-7.59810209274292e-05,-0.0029904567636549473,-0.00039165234193205833,256.05321629164973
2025-10-02 14:15:23.806384,0.27927348973229527,0.10108859195373952,-9.805503491163254,256.17240029165987,-0.0147735202498734,0.034379691146314145,0.011071118116378785,256.17240029165987,0.2689906311035156,0.13367202758789062,-9.801467742919922,256.1699182916782,-0.0013249404728412628,0.002822898793965578,0.003799642901867628,256.17240029165987
2025-10-02 14:15:23.933948,0.28454110013321043,0.10160630808211864,-9.805346785783769,256.3015162916854,-0.0055213430151343345,-0.03738984690047801,0.013758498430252076,256.3015162916854,0.2796185302734375,0.06361770629882812,-9.793384552001953,256.2990342916455,-0.00011572521179914474,0.000981794437393546,0.00022123195230960846,256.3015162916854
2025-10-02 14:15:24.066255,0.2876953623443842,0.10156418072059752,-9.805253815054893,256.4405642916681,-0.006729670129716397,-0.05426255411468447,0.012169225215911865,256.4405642916681,0.28186386108398437,0.060174865722656255,-9.799372100830078,256.43808229168644,-0.0012524030171334743,0.001985931536182761,-0.0009457697160542011,256.4405642916681
2025-10-02 14:15:24.195014,0.28916999358683826,0.10162658147513867,-9.805212884545327,256.56968029163545,-0.009401756320148707,-0.024237503735348585,-0.004639180898666382,256.56968029163545,0.27842102050781253,0.06556365966796876,-9.805060272216798,256.56719829165377,5.920417606830597e-05,0.0021129644010215998,0.0004619769752025604,256.56968029163545
2025-10-02 14:15:24.328145,0.2916996452584863,0.10129449617117643,-9.805136870741844,256.6888642916456,-0.008937743213027717,0.047945121824741366,0.008910571932792663,256.6888642916456,0.2805166625976563,0.14340179443359377,-9.800719299316407,256.6863822916639,0.0015940507873892784,0.002412974601611495,-0.00032034190371632576,256.6888642916456
2025-10-02 14:15:24.446664,0.2952662458084524,0.1017962969094515,-9.805026943087578,256.81798129167873,-0.008013590779155493,-0.07215793021023274,-0.0036252737045288086,256.81798129167873,0.28755203247070316,0.028291168212890627,-9.806557159423829,256.81549929163884,0.0003560306504368782,0.0012182039208710194,0.0021552450489252806,256.81798129167873
2025-10-02 14:15:24.585329,0.2992052774503827,0.10181764838285745,-9.804907075166703,256.9570294166333,-0.013299766089767219,0.06269026480615139,-0.00539230227470398,256.9570294166333,0.28336074829101565,0.17812957763671877,-9.819729766845704,256.9545474166516,-0.0008639632724225521,0.006617230363190174,0.004593369085341692,256.9570294166333
2025-10-02 14:15:24.746866,0.30464527107775213,0.10197799913585187,-9.804740429520608,257.1159414166468,-0.006764680333435536,-0.1579615624062717,0.0014746677875518799,257.1159414166468,0.2939886474609375,-0.053738250732421874,-9.80236587524414,257.11345941666514,0.00011428399011492729,-0.004108798690140247,-0.0008354987949132919,257.1159414166468
2025-10-02 14:15:24.954714,0.30196576623246074,0.10195615430362523,-9.804824044704437,257.24505741667235,-0.0019894968532025814,-0.045373790469020604,-0.012513041496276855,257.24505741667235,0.30641281127929687,0.0473016357421875,-9.81718505859375,257.24257541663246,2.9569491744041443e-06,-0.007182014174759388,-0.0019552018493413925,257.24505741667235
2025-10-02 14:15:25.081077,0.2903355812095106,0.09990412878803909,-9.805195342898369,257.45362941664644,-0.011764835435897113,0.3234156007692218,0.0014805150032043458,257.45362941664644,0.28770172119140625,0.4331991577148438,-9.79802490234375,257.45114741666475,-0.00028144195675849915,-0.0018801952246576548,0.0007887654937803745,257.45362941664644
2025-10-02 14:15:25.205346,0.29145649245008826,0.10069299126975238,-9.805154997110368,257.5728144166642,-0.0076465866342186935,-0.1705975964292884,-0.0008057463169097901,257.5728144166642,0.2851570129394531,-0.08951385498046875,-9.807006225585939,257.5703324166825,-0.0032679641153663397,0.001728392904624343,-0.0007656808011233807,257.5728144166642
2025-10-02 14:15:25.348768,0.2917961608618498,0.10025736456736922,-9.80514739573002,257.7217944166623,-0.006040356494486332,-0.009845368126407267,0.00472688913345337,257.7217944166623,0.2796185302734375,0.07589218139648438,-9.799521789550782,257.7193124166806,-0.0002464344725012779,-0.002016148529946804,0.0007153390906751156,257.7217944166623
2025-10-02 14:15:25.470495,0.2906621482037008,0.09986565593630076,-9.805187156796455,257.84097841667244,-0.00011621341109275819,0.09308315073139967,0.009704039096832276,257.84097841667244,0.29114456176757814,0.19983444213867188,-9.802515563964844,257.83849641663255,-0.0015089474618434906,0.0031012436375021935,-6.26780092716217e-06,257.84097841667244
2025-10-02 14:15:25.598122,0.29043151209130885,0.1004642098210752,-9.80518540263176,257.9700937916641,-0.012010491583496333,-0.07277179649099708,0.01808777689933777,257.9700937916641,0.28186386108398437,0.025896148681640627,-9.78889389038086,257.96761179168243,-0.0007662712596356869,-0.0009235856123268604,-0.0006739934906363487,257.9700937916641
2025-10-02 14:15:25.717931,0.2911845421046019,0.10002854657359422,-9.805168445706368,258.08927779167425,-0.0073747276514768605,0.03888258623890579,-0.000940232276916504,258.08927779167425,0.2896476745605469,0.13561798095703126,-9.797276458740235,258.08679579163436,0.00043911905959248543,-0.00012017818517051637,0.0025192664470523596,258.08927779167425
2025-10-02 14:15:25.864382,0.29306601164862517,0.09996694067493081,-9.805112312436105,258.23825879168,-0.015393453016877175,-0.038744263043627145,-0.004737998843193055,258.23825879168,0.2839595031738281,0.0622705078125,-9.811646575927735,258.2357767916401,-0.0008463887497782707,0.0020412432495504618,-0.0005423035472631454,258.23825879168
2025-10-02 14:15:26.002266,0.29540102412924174,0.09911476381123066,-9.805050916671753,258.3673747916473,-0.009345878865569831,-0.030407641008496286,-0.0004584217071533203,258.3673747916473,0.28530670166015626,0.06331832885742188,-9.807904357910157,258.3648927916656,0.0029917783103883266,0.0016266601160168648,-0.001139116007834673,258.3673747916473
2025-10-02 14:15:26.135551,0.2979072138480842,0.09833642631769181,-9.804984258413315,258.50642279163003,-0.00017631182447075844,0.07126089423894882,-0.003370335102081299,258.50642279163003,0.2992277526855469,0.16839981079101562,-9.804910583496094,258.50394079164835,-0.0001878892071545124,0.0028779448475688696,0.0010232939384877682,258.50642279163003
2025-10-02 14:15:26.290799,0.3000933781452477,0.09925197238102555,-9.8049088293314,258.65540279168636,-0.0047575139254331595,-0.017671601325273515,0.003589020967483521,258.65540279168636,0.29788055419921877,0.08816665649414063,-9.795929260253907,258.65292079164647,-0.0012886552140116692,-0.00034393847454339266,0.0014671680983155966,258.65540279168636
2025-10-02 14:15:26.413966,0.30344427125528456,0.09998429959639907,-9.80479539334774,258.7845197916613,-0.002420253921300173,0.04102247530594468,0.001831347942352295,258.7845197916613,0.2935395812988281,0.13936019897460938,-9.80416213989258,258.7820377916796,0.000528654083609581,0.002243373077362776,-0.0008270363323390484,258.7845197916613
2025-10-02 14:15:26.545034,0.3061989859119058,0.10047521903179586,-9.804707685112954,258.91363629163243,-0.0035283743776381017,0.1025026953779161,0.0038369429111480714,258.91363629163243,0.3004252624511719,0.20582199096679688,-9.801467742919922,258.91115429165075,5.016103386878967e-06,0.0022112266160547733,0.001684786519035697,258.91363629163243
2025-10-02 14:15:26.668868,0.3129662244021893,0.10163231905549765,-9.804479058980942,259.04275229165796,-0.009247846640646458,0.052097987970337274,0.013490695953369141,259.04275229165796,0.296982421875,0.15223342895507813,-9.799521789550782,259.0402702916763,-0.0015487726777791977,-0.0007990068988874555,0.0009850983042269945,259.04275229165796
2025-10-02 14:15:26.795714,0.3148874732851982,0.10150133228860796,-9.804422340989113,259.1718682916835,-0.007576456591486931,-0.10584227778017521,0.011034865379333497,259.1718682916835,0.2998265075683594,-0.01466949462890625,-9.79892303466797,259.1693862916436,0.0013934224843978882,0.0020661475136876106,0.00030667567625641823,259.1718682916835
2025-10-02 14:15:26.937620,0.3159232344478369,0.10078492959961295,-9.804395443797112,259.3109162916662,-0.010558207668364048,-0.15197844467125834,-0.009049150943756103,259.3109162916662,0.30147308349609375,-0.045954437255859376,-9.814790039062501,259.30843429168453,-0.00045183533802628517,0.0012219941709190607,0.002917487407103181,259.3109162916662
2025-10-02 14:15:27.093937,0.3161805119365454,0.10083548974245787,-9.804386088252068,259.45989729167195,-0.009767700657248498,-0.10472739648073912,-0.008608270883560181,259.45989729167195,0.31883697509765624,-0.017513580322265625,-9.810748443603517,259.45741529163206,0.0016290117055177689,-0.0020311889238655567,-0.0009464165195822716,259.45989729167195
2025-10-02 14:15:27.212792,0.3142724192887545,0.09975034701637925,-9.80445976316929,259.5890132916393,-0.009655799567699432,-0.03822825539857149,0.012121278047561647,259.5890132916393,0.3129991149902344,0.06601272583007813,-9.785750427246095,259.5865312916576,0.0013273763470351696,5.998299457132816e-07,0.00031999126076698303,259.5890132916393
2025-10-02 14:15:27.365219,0.3116515145078302,0.09987897662445903,-9.804541039466859,259.7379932916374,-0.00404115691781044,0.051456329142674805,0.007862166166305543,259.7379932916374,0.3008743286132813,0.159268798828125,-9.79847396850586,259.7355112916557,0.0032613431103527546,-0.0028783478774130344,-0.00021796906366944313,259.7379932916374
2025-10-02 14:15:27.555289,0.30790907721966504,0.09982070546597242,-9.804656814336777,259.9267025416484,-0.005537934489548206,-0.012552199568599463,0.01307028114795685,259.9267025416484,0.30177246093750004,0.08607101440429688,-9.80326400756836,259.9242205416667,-0.00172490905970335,0.0015469091013073921,0.0003123069182038307,259.9267025416484
2025-10-02 14:15:27.666591,0.30783152852207424,0.10007596383802593,-9.804658568501473,260.03595454164315,-0.012495682574808598,0.004257074492052198,-0.0024967610836029055,260.03595454164315,0.2920426940917969,0.09804611206054688,-9.804461517333985,260.03347254166147,-0.0007037795148789883,-0.0037026479840278625,0.0008520919363945723,260.03595454164315
2025-10-02 14:15:27.812362,0.3049957568384707,0.10081761005334557,-9.804739844799043,260.1750025416841,-0.0066661547496914865,0.06488779462873936,0.012402529120445252,260.1750025416841,0.3035687255859375,0.17483642578125,-9.79802490234375,260.1725205416442,-0.0006239581853151321,-0.003020678414031863,0.00074400519952178,260.1750025416841
2025-10-02 14:15:27.966771,0.30623847289010886,0.10239044710993768,-9.80468605041504,260.333915541647,-0.0032685021869838238,0.3004219003021717,-0.0011238348484039306,260.333915541647,0.300574951171875,0.39158569335937504,-9.799521789550782,260.3314335416653,-0.004042355343699455,0.005764479283243418,0.0019730154890567064,260.333915541647
2025-10-02 14:15:28.096744,0.3134244268387556,0.10272898262366653,-9.804453915953637,260.46303154167254,-0.0025209904834628104,-0.030279650939628484,-0.022161532044410705,260.46303154167254,0.30222152709960937,0.017214202880859376,-9.829908599853516,260.46054954163264,-0.0016026608645915985,0.007432952057570219,0.0037164739333093166,260.46303154167254
2025-10-02 14:15:28.220734,0.32078457299619917,0.10313792226836085,-9.80421125650406,260.59214754163986,-0.04101635400205851,-0.02140787162818015,-0.009381272792816163,260.59214754163986,0.2980302429199219,0.039667510986328126,-9.825567626953125,260.5896655416582,0.0004889462143182755,0.00416910694912076,0.0009643593803048134,260.59214754163986
2025-10-02 14:15:28.365443,0.3254676445573568,0.10379068166948856,-9.804048119187355,260.7311965416302,-0.030281560420989992,0.032875102059915666,0.00048707306385040286,260.7311965416302,0.3046165466308594,0.10762619018554688,-9.809401245117188,260.7287145416485,0.0021854154765605927,-0.0013168659061193466,0.004300747066736221,260.7311965416302
2025-10-02 14:15:28.483893,0.3321036130562425,0.10431501246057451,-9.80381890833378,260.86031254165573,-0.009823870472609996,0.28427689734846356,0.012682610750198366,260.86031254165573,0.33290771484375004,0.4477189636230469,-9.807455291748047,260.85783054167405,-0.0016631269827485085,0.0073486026376485825,0.004755768459290266,260.86031254165573
2025-10-02 14:15:28.643450,0.34860463835299016,0.10807638924568892,-9.803206704854965,261.01922429166734,0.11572970017790794,1.1653255212306977,-0.13911637008190156,261.01922429166734,0.3070115661621094,1.0762619018554689,-9.962383117675781,261.01674229168566,-0.0004292670637369156,0.015230832621455193,0.009398723021149635,261.01922429166734
2025-10-02 14:15:28.776078,0.3600653637573123,0.10961815383285285,-9.802778688669205,261.1483412916423,-0.1326881604641676,-0.49940758254379036,-0.018449134826660156,261.1483412916423,0.37901184082031253,-0.3020718383789063,-9.716594238281251,261.1458592916606,0.00207856809720397,-0.0005474730278365314,0.0010823565535247326,261.1483412916423
2025-10-02 14:15:28.912525,0.36154781565070154,0.11465087975375354,-9.802666422128677,261.2675252916524,-0.1132141549140215,-0.9136892800033093,-0.17019607543945314,261.2675252916524,0.3391946411132813,-1.0690768432617188,-10.020911407470704,261.26504329167074,-0.0008975239470601082,0.023160595446825027,0.003933954518288374,261.2675252916524
2025-10-02 14:15:29.039525,0.361531151086092,0.11534104306250811,-9.802658236026764,261.41650529165054,0.018977576941251757,-0.3888223357871175,0.08142364740371705,261.41650529165054,0.3737727355957031,-0.17887802124023439,-9.727970581054688,261.41402329166885,-0.0016149238217622042,-0.015870966017246246,-0.0018384847790002823,261.41650529165054
2025-10-02 14:15:29.384284,0.34378653265535836,0.10954784106463195,-9.803362240791321,261.75419429165777,-0.01072912909090519,-0.9361289933323861,0.0008466768264770508,261.75419429165777,0.3350033569335938,-0.9153465270996094,-9.79413299560547,261.7517122916761,0.0020595197565853596,-0.012426750734448433,9.588012471795082e-05,261.75419429165777
2025-10-02 14:15:29.609048,0.322669532597065,0.08795527051202953,-9.804300134181977,261.98263079166645,-0.7578145705908538,-8.531446655988693,-0.7294471693038941,261.98263079166645,0.2082170104980469,-8.585246887207031,-10.507848815917969,261.98014879168477,0.15591639280319214,0.09193451702594757,-0.03733218461275101,261.98263079166645
2025-10-02 14:15:29.731642,0.3021539917588234,0.11884301360696554,-9.804622900485993,262.1018147916766,-0.3873269469290972,0.09191866859793664,-1.1260936278104783,262.1018147916766,0.0688568115234375,0.41912841796875,-12.725337524414064,262.0993327916367,0.05428115278482437,0.08176983147859573,-0.05299518257379532,262.1018147916766
2025-10-02 14:15:29.900196,0.32845553521066906,0.14340316487476232,-9.803448194861412,262.2706597916549,0.19036549765616656,0.132173733394593,-1.258245964050293,262.2706597916549,-0.16031661987304688,0.09819580078125001,-7.013814697265626,262.2681777916732,-0.0679318830370903,0.16478821635246277,-0.04975929111242294,262.2706597916549
2025-10-02 14:15:30.060783,0.3632370762526989,0.14007365978322925,-9.802269396185876,262.40970779163763,-0.8660415621846915,0.2995620672404766,-6.234628772735596,262.40970779163763,-1.7027091979980469,0.18351837158203127,-7.280559997558594,262.40722579165595,0.2171728014945984,-0.12090063840150833,-0.041078947484493256,262.40970779163763
2025-10-02 14:15:30.191086,0.33809295259416106,0.06359497067984193,-9.803968012332916,262.55868879164336,-1.0771060936152936,-0.029016867061145604,2.895682693719864,262.55868879164336,0.5023553466796875,0.0916094970703125,-9.070238342285156,262.5562067916617,0.08483552187681198,-0.13499069213867188,-0.025066424161195755,262.55868879164336
2025-10-02 14:15:30.353400,0.3497570149227977,0.03596844816114754,-9.803699625134469,262.7076687916415,0.36500669952481984,0.09770359313115479,-0.20793283581733704,262.7076687916415,0.004340972900390625,0.17169296264648437,-10.755134582519531,262.7051867916598,0.1687459498643875,0.026515591889619827,-0.017231827601790428,262.7076687916415
2025-10-02 14:15:30.520132,0.35677813220769167,0.03794454895192757,-9.803435915708542,262.88644483330427,0.5855122915282845,0.5459911436587572,-9.035188377499582,262.88644483330427,-0.37976028442382814,0.34099090576171875,-12.343631286621095,262.8839628333226,0.20116372406482697,0.12195755541324615,-0.02707616053521633,262.88644483330427
2025-10-02 14:15:30.643312,0.34580868255347014,0.02077988066710532,-9.803882058262825,263.0155618333374,-0.3733513706177473,0.09433075468987227,1.250368595123291,263.0155618333374,1.0789562988281252,0.22079086303710938,-9.196126556396484,263.0130798332975,0.025013886392116547,-0.05834513157606125,-0.04605529084801674,263.0155618333374
2025-10-02 14:15:30.795953,0.39303938426077367,-0.020817216052673757,-9.802103335261345,263.14467783330474,0.33729199368506674,0.0709629329200834,2.0980721926689148,263.14467783330474,2.020049285888672,0.067060546875,-7.011868743896485,263.14219583332306,-0.005895248614251614,0.26680082082748413,-0.041301168501377106,263.14467783330474
2025-10-02 14:15:30.924425,0.42230119027197366,-0.022846455699764193,-9.800883021354675,263.2936588333105,0.6388422238826752,0.22597403598949314,-1.6000122106075287,263.2936588333105,0.8325686645507813,0.096998291015625,-12.430450744628907,263.2911768333288,-0.05569817125797272,-0.09380856156349182,-0.008247345685958862,263.2936588333105
2025-10-02 14:15:31.066783,0.43078751016408207,-0.020626868626568467,-9.80051464676857,263.4426388333086,-0.28529007364064457,-0.009011491220444442,4.736396121382714,263.4426388333086,2.1706361389160156,0.4424798583984375,-16.616346130371095,263.4401568333269,-0.006246511358767748,-0.1540120393037796,-0.0343986339867115,263.4426388333086
2025-10-02 14:15:31.223675,0.43409933656454086,-0.04868982869200409,-9.800269648432732,263.57175583334174,0.40056497007608416,0.2202331117540598,2.4399261474609375,263.57175583334174,-0.10852432250976562,0.06780899047851563,-3.9206469726562503,263.56927383330185,-0.05717149376869202,0.2568363845348358,0.046148672699928284,263.57175583334174
2025-10-02 14:15:31.401877,0.4086949752643705,-0.03749632561113685,-9.80141277909279,263.7703958333004,0.23571500390768052,0.2159252852573991,1.4427934455871583,263.7703958333004,-1.2305909729003908,-0.03382965087890625,-9.786648559570313,263.76791383331874,0.18637150526046753,-0.23755401372909546,-0.007461749482899904,263.7703958333004
2025-10-02 14:15:31.530814,0.40899311017245055,-0.06385072697885334,-9.801261920928956,263.8995135833393,-0.15212730199098587,0.20695315310731532,-0.0508000248670578,263.8995135833393,0.3986210632324219,0.30551467895507817,-9.347312164306642,263.8970315832994,-0.12454976886510849,0.11670193076133728,-0.03460993617773056,263.8995135833393
2025-10-02 14:15:31.670719,0.42101019814610485,-0.05824279035441578,-9.80078888118267,264.038561583322,0.055897992923855784,0.2419108597934246,-0.6141032391786576,264.038561583322,-0.037272491455078126,0.1838177490234375,-9.853709106445313,264.0360795833403,-0.11576271057128906,-0.0065183392725884914,-0.0058732121251523495,264.038561583322
2025-10-02 14:15:31.805319,0.4012518717348576,-0.07271481811534614,-9.801520367860794,264.17761058331234,-0.3124865334481001,0.1619293184950948,-0.2999229866266251,264.17761058331234,0.42421783447265626,0.14579681396484376,-9.585915985107423,264.17512858333066,0.0018680039793252945,-0.25220486521720886,-0.013160798698663712,264.17761058331234
2025-10-02 14:15:31.954048,0.3877731991186738,-0.04202092849183828,-9.802242498993873,264.32659058331046,-0.6676911433786155,0.21057044170796874,0.4770848500728607,264.32659058331046,0.04580474853515625,0.19848724365234377,-11.93004135131836,264.3241085833288,-0.07436809688806534,0.006339816376566887,-0.014713314361870289,264.32659058331046
2025-10-02 14:15:32.098224,0.4176280224323273,-0.018019570042379203,-9.801091182231904,264.4755715833162,-0.08651653569191695,0.16231949223205447,-0.4576767718791962,264.4755715833162,0.13906082153320312,0.17049545288085938,-9.953551483154298,264.4730895833345,0.0558304600417614,0.13873253762722015,-0.01767105609178543,264.4755715833162
2025-10-02 14:15:32.316342,0.4069429301843047,-0.08541993607766926,-9.801184737682343,264.6344835833297,0.8035898637771607,0.2291210988163948,-0.541708277463913,264.6344835833297,0.3457809448242188,0.09984237670898438,-9.99531463623047,264.632001583348,0.011549030430614948,-0.06133336201310158,-0.0553063228726387,264.6344835833297
2025-10-02 14:15:32.431620,0.40945675782859325,-0.115471774013713,-9.800773093700409,264.80332858330803,0.5355282821506262,0.24300653664395214,0.7586738920211792,264.80332858330803,0.2655477905273438,0.13037887573242188,-10.287357330322266,264.80084658332635,-0.025799911469221115,0.25145038962364197,-0.04039383307099342,264.80332858330803
2025-10-02 14:15:32.656074,0.4545554185286165,-0.08787002907134593,-9.799069799780845,265.02183191664517,0.16665277238935233,0.1969930973276496,-1.6112528979778291,265.02183191664517,0.8387059020996094,0.16196319580078125,-9.619895324707032,265.0193499166635,-0.000819153618067503,-0.09425890445709229,-0.025027427822351456,265.02183191664517
2025-10-02 14:15:32.845245,0.43605329331010584,-0.0839917079731822,-9.799945712685586,265.1708129166509,1.2198032985627651,0.30074097555130724,-0.4483446156978607,265.1708129166509,0.8264314270019532,0.12079879760742188,-7.743247833251954,265.1683309166692,0.09773927927017212,0.03679400682449341,-0.008957847021520138,265.1708129166509
2025-10-02 14:15:32.968401,0.4221529633551836,-0.07417039108928293,-9.80063159108162,265.3396579166292,-0.45852735903114084,0.2551440589874983,-1.1113761860132219,265.3396579166292,0.16106506347656252,0.108973388671875,-9.867181091308595,265.33717591664754,0.013143583200871944,-0.32453128695487976,-0.008621830493211746,265.3396579166292
2025-10-02 14:15:33.186751,0.41445590794086457,-0.06373527187854051,-9.801032125353814,265.5482299166615,-0.1319933285191655,0.373291546292603,-0.9256598460674287,265.5482299166615,0.03577560424804688,0.21136047363281252,-8.538993072509767,265.54574791667983,-0.007328168023377657,-0.3681516647338867,-0.021254796534776688,265.5482299166615
2025-10-02 14:15:33.392709,0.3792857097834349,-0.08878428691998125,-9.802261794805528,265.7568029166432,-1.0332758036255838,0.2809846225753427,-4.664851929545403,265.7568029166432,0.6156697082519531,0.15088623046875002,-13.144166564941408,265.7543209166615,0.2625258266925812,-0.0679018571972847,0.018649399280548096,265.7568029166432
2025-10-02 14:15:33.559626,0.39063753079622987,-0.020315785333514216,-9.802199229598045,265.8958517083083,-0.42057527493685487,0.3226870011538267,0.7181889402866364,265.8958517083083,2.1903950500488283,0.2827619934082031,-12.657528533935547,265.89336970832665,-0.2381589710712433,0.02648169733583927,-0.017811860889196396,265.8958517083083
2025-10-02 14:15:33.701148,0.389975991435349,0.01616939794854261,-9.802231389284135,266.06469570833724,0.40906236313283445,0.08951084000989795,0.08488929212093353,266.06469570833724,-0.47062133789062505,0.21869522094726562,-12.24139389038086,266.06221370829735,-0.18399988114833832,0.44130781292915344,-0.03222021460533142,266.06469570833724
2025-10-02 14:15:33.845576,0.42400766361504794,-0.0053256794193293905,-9.800829811692239,266.213676708343,-1.0248582981526853,0.11175436098128558,0.525668780207634,266.213676708343,-0.2800675964355469,0.18576370239257814,-6.118376770019531,266.2111947083031,0.051585882902145386,-0.7062996625900269,-0.08934801816940308,266.213676708343
2025-10-02 14:15:34.142910,0.31521404027938843,-0.1148770116828382,-9.804262712001801,266.49177370831603,-1.1825104880332948,0.4310195715352893,-0.732626885175705,266.49177370831603,0.8015830993652344,0.062120819091796876,-11.137888641357423,266.48929170833435,-0.09268094599246979,-0.5260530114173889,0.02894567884504795,266.49177370831603
2025-10-02 14:15:34.381927,0.4612475202977658,-0.1030600629374385,-9.798610793352127,266.7400747083011,0.511429896466434,6.581288554072381,-0.7201676380634309,266.7400747083011,1.0837463378906251,7.234755249023438,-9.908794555664063,266.7375927083194,-0.025398515164852142,0.035948436707258224,-0.012213097885251045,266.7400747083011
2025-10-02 14:15:34.778453,0.4538097158074379,-0.09637066550552846,-9.799023022055627,267.14728966663824,-0.03168759651482105,0.5381020803004504,-0.03956635415554047,267.14728966663824,0.4099974060058594,0.4423301696777344,-9.848470001220704,267.14480766665656,-0.0022373718675225973,0.023403288796544075,-0.00026756618171930313,267.14728966663824
2025-10-02 14:15:34.966032,0.44223847802728417,-0.09618812274187803,-9.79955511868,267.33599766663974,-0.05334714509546757,-0.4637973814085126,0.016648192405700684,267.33599766663974,0.39128631591796875,-0.4956193542480469,-9.783505096435547,267.33351566665806,-0.0034357206895947456,-0.003767015179619193,0.00030684005469083786,267.33599766663974
2025-10-02 14:15:35.104133,0.4367623778432608,-0.09181303499266506,-9.799846310019493,267.4651146666729,-0.0778086794167757,0.527257468700409,-0.007014319896697999,267.4651146666729,0.3649411010742188,0.5697152709960938,-9.823771362304688,267.462632666633,-0.0017077415250241756,0.012414908967912197,-0.002731077838689089,267.4651146666729
2025-10-02 14:15:35.270981,0.434370281919837,-0.09035600021481514,-9.799959746003152,267.6438916666666,-0.055358550734817984,0.011619760533794762,0.017055743336677552,267.6438916666666,0.3737727355957031,-0.08891510009765625,-9.773176574707032,267.6414096666849,0.0010541323572397232,-0.003375486470758915,0.0013418726157397032,267.6438916666666
2025-10-02 14:15:35.417442,0.4310814789310098,-0.09009304909966886,-9.800111773610116,267.76307566667674,-0.05985334195196629,-0.08938374529592694,0.016455234289169313,267.76307566667674,0.37077896118164066,-0.1884580993652344,-9.757459259033203,267.76059366663685,-4.652049392461777e-05,-0.003845433471724391,-0.0019226493313908577,267.76307566667674
2025-10-02 14:15:35.574028,0.433316759839654,-0.0909929447248578,-9.800002430677415,267.93192016665125,-0.06583098705857993,-0.02636300317011774,0.04568721950054169,267.93192016665125,0.37601806640625,-0.10298583984375001,-9.732610931396485,267.92943816666957,0.0007768962532281876,0.0011086957529187202,-0.002080302219837904,267.93192016665125
2025-10-02 14:15:35.702258,0.4373519964516163,-0.09046770030632616,-9.799829937815666,268.070968166634,-0.04561657782644034,0.3450881959497929,-0.020499168634414675,268.070968166634,0.38470001220703126,0.2285746765136719,-9.83829116821289,268.0684861666523,0.00029695313423871994,-0.0006031000521034002,0.002102223690599203,268.070968166634
2025-10-02 14:15:35.872247,0.43031019464135173,-0.09236166827380658,-9.80012229859829,268.2398131666705,-0.0685125932469964,0.0901163374632597,0.04580708742141724,268.2398131666705,0.37317398071289065,-0.052690429687500005,-9.790241088867187,268.2373311666306,0.0023034969344735146,0.0024761827662587166,0.0008735156152397394,268.2398131666705
2025-10-02 14:15:36.011999,0.4297961147502065,-0.09129271502606572,-9.800155043005944,268.37886216666084,-0.0681482020765543,0.02587875321507454,-0.014634996056556703,268.37886216666084,0.3680845642089844,-0.06661148071289062,-9.828711090087891,268.37638016667916,-0.0013983123935759068,0.0020983621943742037,-0.0006129168905317783,268.37886216666084
2025-10-02 14:15:36.199010,0.430306320860982,-0.09092540024779737,-9.800138086080551,268.56757116666995,-0.05204281400889159,0.12729973196983338,-0.019592850208282473,268.56757116666995,0.37242553710937504,0.03442840576171875,-9.79083984375,268.56508916663006,1.1932570487260818e-05,-0.0026772634591907263,-9.631598368287086e-05,268.56757116666995
2025-10-02 14:15:36.362135,0.4318716570362449,-0.09029487853869796,-9.800072597265244,268.73641616664827,-0.06663117852061987,-0.10909048830159009,-0.005585260391235352,268.73641616664827,0.36479141235351564,-0.23007156372070314,-9.781409454345704,268.7339341666666,-0.0016781094018369913,0.006055241450667381,0.0006749355234205723,268.73641616664827
2025-10-02 14:15:36.549836,0.41880426295101647,-0.10060773155651988,-9.80053920507431,268.90525995835196,0.0920833408087492,6.109711781144142,0.09906469702720642,268.90525995835196,0.4340972900390625,6.290369110107422,-9.625284118652344,268.9027779583121,0.029366537928581238,-0.1002870574593544,0.02614731714129448,268.90525995835196
2025-10-02 14:15:36.668506,0.4423863029479981,-0.137501259483397,-9.799055181741714,269.0443089583423,0.04065923530608416,5.033520045876503,-3.6781687867641453,269.0443089583423,-1.3013937377929687,5.314099273681641,-13.521232452392578,269.0418269583024,-0.08172435313463211,0.11369992047548294,0.019787050783634186,269.0443089583423
2025-10-02 14:15:36.792272,0.4063751655444503,-0.07176553635858,-9.801316884756089,269.16349395830184,-1.9571503485739232,-0.04723699203226715,-3.4488292944431307,269.16349395830184,0.23022125244140626,0.07349716186523438,-4.138743438720703,269.16101195832016,-0.048660486936569214,0.0007573245093226433,0.006911237724125385,269.16349395830184
2025-10-02 14:15:36.975452,0.4789623179286719,0.025561706218868496,-9.798268146514893,269.32240595831536,0.05886925555765629,-0.12465563932433725,2.0397520637512208,269.32240595831536,0.34368530273437503,-0.094603271484375,-9.227261810302736,269.3199239583337,-0.0124281644821167,-0.7715950012207031,-0.022081270813941956,269.32240595831536
2025-10-02 14:15:37.116420,0.4643075875192881,0.07862802051007749,-9.798689146041871,269.4813189583365,-1.2628969855606555,-0.11440363389439881,-1.7063841730356217,269.4813189583365,0.2812651062011719,-0.052241363525390626,-14.894327087402344,269.4788369582966,-0.004111068323254585,0.275350421667099,0.061041686683893204,269.4813189583365
2025-10-02 14:15:37.279339,0.4509284272044897,0.054928684453479946,-9.799476181268693,269.6501639583148,-0.8824810820817948,0.0046474218182265764,3.121414453983307,269.6501639583148,0.6903643798828125,-0.2315684509277344,-10.18497024536133,269.6476819583331,-0.1365504115819931,-0.3894028961658478,0.021598711609840393,269.6501639583148
2025-10-02 14:15:37.444459,0.49549923051148653,0.12851777094416322,-9.796635603904724,269.78921295830514,-0.7391924312710763,-0.18285478569567204,0.6699646139144898,269.78921295830514,0.49786468505859377,-0.12094848632812501,-6.026168518066407,269.78673095832346,-0.003681147238239646,0.04621058702468872,0.05911245197057724,269.78921295830514
2025-10-02 14:15:37.580422,0.5201452810317279,0.09363686378113927,-9.795754428505898,269.9481264166534,0.7147867378592492,-0.31697244420647624,-0.838432252407074,269.9481264166534,1.0336006164550782,-0.14474899291992188,-10.565029907226563,269.9456444166717,0.000890298280864954,-0.017009446397423744,0.033793576061725616,269.9481264166534
2025-10-02 14:15:37.748818,0.5107884934544563,0.06921522757038474,-9.796450247168542,270.0971074166591,-0.5025555407255888,-0.15798062067478896,2.3537756109237673,270.0971074166591,0.3031196594238281,-0.0844244384765625,-9.465715942382813,270.09462541667745,-0.04308674857020378,-0.08569130301475525,-0.015090077184140682,270.0971074166591
2025-10-02 14:15:37.895244,0.5283407019451261,0.09247956275939942,-9.795324658155442,270.25602041668026,-1.1396695469319822,-0.21058396339416505,3.5257634496688843,270.25602041668026,-0.0032931518554687503,-0.023950195312500002,-11.893517303466798,270.25353841664037,-0.12199895083904266,0.26348552107810974,0.03365432843565941,270.25602041668026
2025-10-02 14:15:38.160552,0.47142021372914317,0.1293315480463207,-9.797814987301827,270.52418641664553,0.1912518259137869,-0.03487794701009989,0.424006165266037,270.52418641664553,0.2041754150390625,-0.030686187744140628,-10.965596923828125,270.52170441666385,-0.02397959679365158,0.24858930706977844,0.020350458100438118,270.52418641664553
2025-10-02 14:15:38.302043,0.4782285289093852,0.17542971717193723,-9.796765996813775,270.67316641664365,0.6626988637447357,-0.17348376380279662,-1.2915756779909136,270.67316641664365,0.6926097106933594,-0.017513580322265625,-12.066856842041016,270.67068441666197,-0.033963821828365326,0.014169512316584587,0.024513792246580124,270.67316641664365
2025-10-02 14:15:38.477167,0.47844012502580885,0.18751417603343726,-9.796533862352371,270.8221474166494,-0.15137019719928504,-0.22703196175396442,-0.09235443234443665,270.8221474166494,0.2636018371582031,-0.05748046875,-9.454040222167968,270.8196654166677,0.020859893411397934,0.1430101841688156,0.03922928124666214,270.8221474166494
2025-10-02 14:15:38.904333,0.5047754361480474,0.16876654084771872,-9.795551530122758,271.26909020834137,-0.06244519338011742,-0.2464549686200917,-0.3705579364299774,271.26909020834137,0.8023315429687501,-0.07679031372070313,-11.343111877441407,271.2666082083015,-0.03702355921268463,0.03844929113984108,0.027098001912236214,271.26909020834137
2025-10-02 14:15:39.036929,0.49086805298924446,0.1445092296693474,-9.796645544171334,271.3982072083163,-0.10661714348942042,-0.24749507864937187,2.7828308469057084,271.3982072083163,-0.5174739074707031,-0.057779846191406255,-8.756939849853516,271.3957252083346,-0.03171967342495918,-0.1330084651708603,0.006384493317455053,271.3982072083163
2025-10-02 14:15:39.215497,0.5147748692706228,0.091316332295537,-9.796060237884522,271.58691720833303,0.3165963586047292,-0.2607639641314745,-1.4270024549961091,271.58691720833303,0.036074981689453126,-0.16480728149414064,-8.247100067138673,271.58443520835135,0.08980178833007812,0.35479864478111267,-0.006998472381383181,271.58691720833303
2025-10-02 14:15:39.366476,0.4958332892507315,0.0651844129152596,-9.797246053218842,271.73589820833877,-0.41560006186366083,-0.14197471749968826,-1.703638905286789,271.73589820833877,0.15477813720703126,-0.22588027954101564,-6.787335662841797,271.7334162082989,-0.06580009311437607,0.04621684178709984,0.04301929846405983,271.73589820833877
2025-10-02 14:15:39.506807,0.48115305036306383,0.08797948163934052,-9.79779744565487,271.87494679167867,-0.05079801488667727,-0.1417177506443113,-2.7525527948141097,271.87494679167867,0.05358856201171875,-0.1526824951171875,-14.346316680908204,271.8724647916388,0.0629921704530716,0.3101024627685547,-0.002620586659759283,271.87494679167867
2025-10-02 14:15:39.677891,0.4778198816254735,0.07387026904150844,-9.798076942563057,272.013995791669,0.24637411259114744,-0.19092686690390112,1.345605120062828,272.013995791669,0.6785389709472657,-0.099393310546875,-11.002420349121094,272.0115137916291,-0.0006116521544754505,0.16719825565814972,-0.004741492215543985,272.013995791669
2025-10-02 14:15:39.820619,0.45886426828801635,0.1245154888741672,-9.798470460176468,272.1927727916627,-0.3711467510461807,-0.2463621257990599,-0.17319218873977663,272.1927727916627,-0.3993695068359375,-0.2591111755371094,-9.302255859375,272.19029079168104,-0.11783986538648605,-0.7449367642402649,-0.0029298034496605396,272.1927727916627
2025-10-02 14:15:39.967640,0.4455314471572638,0.16596831925213337,-9.798471629619598,272.33182179165306,-0.9281279557943345,-0.15549012707546353,0.8765753942728043,272.33182179165306,-0.13382171630859377,0.055085449218750006,-8.371641082763672,272.3293397916714,-0.026191599667072296,-0.02088366076350212,0.019930856302380562,272.33182179165306
2025-10-02 14:15:40.096602,0.4638021688163281,0.1867884634807706,-9.797248976826669,272.4609387916862,-0.42203908883035185,-0.31267671413719655,0.2929139292240143,272.4609387916862,0.3381468200683594,-0.12469070434570313,-10.969488830566407,272.4584567916463,-0.10561387985944748,0.14981649816036224,0.029176902025938034,272.4609387916862
2025-10-02 14:15:40.225841,0.4632030484825373,0.21658563690260055,-9.796664255261422,272.59998779167654,0.13390518531203272,-0.27586238857358697,0.30086146473884584,272.59998779167654,0.3585044860839844,-0.0712518310546875,-8.23213119506836,272.59750579163665,-0.08374203741550446,0.20419421792030334,0.05988788232207298,272.59998779167654
2025-10-02 14:15:40.400070,0.47121844824403525,0.22981041245162487,-9.795981885194779,272.76883279165486,-0.354311484284699,-0.27875860584899786,1.4439488554000854,272.76883279165486,0.41344024658203127,-0.09550140380859376,-9.382339324951172,272.7663507916732,0.06743046641349792,0.21828952431678772,0.0387939028441906,272.76883279165486
2025-10-02 14:15:40.520309,0.47253388904035093,0.217338575553149,-9.796204664111137,272.89795045834035,-0.08708532359451056,-0.3108939711749554,1.9704765915870668,272.89795045834035,0.28380981445312503,-0.07379653930664062,-11.607462158203125,272.89546845830046,0.011416273191571236,0.07851091027259827,0.0324704572558403,272.89795045834035
2025-10-02 14:15:40.668919,0.5021814285591245,0.2909478029608727,-9.792816202640534,273.0369994583307,-0.44110850360244513,-0.28136776138097047,1.1065305984020233,273.0369994583307,0.29114456176757814,-0.08771759033203125,-9.538614349365234,273.034517458349,-0.03743542358279228,0.3673272728919983,0.02867012657225132,273.0369994583307
2025-10-02 14:15:40.821096,0.5163930862024426,0.2931751170381904,-9.79200870215893,273.1959124583518,1.2053264696896078,-0.23225188080221415,-3.456188600063324,273.1959124583518,0.17513580322265626,-0.07708969116210938,-8.52956268310547,273.1934304583119,-0.03728514537215233,-0.11505822837352753,0.0012954587582498789,273.1959124583518
2025-10-02 14:15:41.006508,0.49590988777577877,0.32800928302109245,-9.79196660220623,273.34489345829934,0.5628384703025222,-0.3735146541148424,-3.4038431560993194,273.34489345829934,0.8643026733398438,-0.02065704345703125,-9.789941711425781,273.34241145831766,-0.21195779740810394,-0.011994808912277222,0.03116915374994278,273.34489345829934
2025-10-02 14:15:41.127788,0.5066735519841313,0.3504094910994172,-9.790639284253121,273.5038074583281,0.3366727735474706,-0.5095285646617412,0.09125866413116455,273.5038074583281,0.9331594848632813,-0.07828720092773438,-12.11969696044922,273.5013254583464,0.09262437373399734,0.2090206891298294,0.03153779357671738,273.5038074583281
2025-10-02 14:15:41.305388,0.4750817036256194,0.33326925549656156,-9.792823219299317,273.6726524583064,0.13819305818527938,-0.5389414846524596,-0.004754955768585205,273.6726524583064,1.7179774475097658,-0.2501298522949219,-12.379556579589844,273.6701704583247,-0.07348613440990448,0.24404342472553253,0.01657552644610405,273.6726524583064
2025-10-02 14:15:41.421679,0.48276395827531815,0.3552195568755269,-9.791671902537347,273.79183745832415,-0.0049576348811388015,-0.40192251082509756,-1.8274648064374925,273.79183745832415,0.7704478454589844,-0.10792556762695313,-10.541678466796876,273.78935545834247,0.06273960322141647,-0.2559904456138611,0.03422803431749344,273.79183745832415
2025-10-02 14:15:41.583537,0.5282535784319043,0.35888594381511213,-9.789190928936005,273.9507504166686,-0.8851114520430565,-0.41292357198894025,-2.14923299074173,273.9507504166686,0.28455825805664064,-0.15417938232421877,-10.1117724609375,273.9482684166287,0.13500754535198212,0.25763827562332153,0.017762556672096252,273.9507504166686
2025-10-02 14:15:41.713106,0.5745456923916936,0.33706029776483776,-9.787358411550523,274.08979941665893,-0.5857723829895258,-0.2761370249837637,-8.220792859196663,274.08979941665893,-3.5604959106445313,-0.0101788330078125,-10.863658905029297,274.08731741667725,0.21583499014377594,0.11523542553186417,0.004591223783791065,274.08979941665893
2025-10-02 14:15:41.885603,0.5693163812533021,0.3313865251466632,-9.787858933210373,274.25864441663725,-0.8558204099535942,-1.9538624592125418,2.3990728211402894,274.25864441663725,-0.16091537475585938,-3.593277740478516,-7.213499450683594,274.25616241665557,0.1525563895702362,0.06370984762907028,0.06104879826307297,274.25864441663725
2025-10-02 14:15:42.004192,0.5953199725225569,0.30372888447716834,-9.787205799221994,274.377829416655,-0.760277052372694,-4.157914119958877,-0.45718852937221527,274.377829416655,0.25102798461914066,-3.4118550109863284,-9.707912292480469,274.3753474166733,0.026828458532691002,0.004441578406840563,0.015338619239628315,274.377829416655
2025-10-02 14:15:42.144426,0.598201261125505,0.29636084457859396,-9.78725900888443,274.51687841664534,-0.17772568121552468,-2.2803351670503615,-0.056421537995338444,274.51687841664534,0.3980223083496094,-1.9055374145507813,-9.795929260253907,274.51439641666366,-0.0025785795878618956,0.005958387162536383,0.000552021898329258,274.51687841664534
2025-10-02 14:15:42.255219,0.6094951216131449,0.29667071046307686,-9.786553834676743,274.6261314166477,-0.19425850074738266,-0.24128584725782276,0.007837607860565187,274.6261314166477,0.434696044921875,0.1143621826171875,-9.765542449951173,274.623649416666,-0.004267425742000341,0.0031282880809158087,-0.0008130739443004131,274.6261314166477
2025-10-02 14:15:42.371664,0.6124859724193812,0.2975474273599684,-9.786339241862297,274.74531641666545,-0.15084595777094364,0.48248051449656487,-0.03683395028114319,274.74531641666545,0.46343627929687503,0.8014334106445313,-9.827663269042969,274.74283441668376,0.00042487354949116707,4.1935418266803026e-05,0.0019495675805956125,274.74531641666545
2025-10-02 14:15:42.499367,0.6079039115086198,0.29749909646809103,-9.786625755429268,274.8744334166404,-0.15569428626447918,-0.4368592954427004,0.015695096254348756,274.8744334166404,0.4459226989746094,-0.15298187255859375,-9.766290893554688,274.8719514166587,-0.0005789138376712799,-0.004105212166905403,0.00043411972001194954,274.8744334166404
2025-10-02 14:15:42.618476,0.6053864293545484,0.2962988092750311,-9.786819298267366,274.99361816665623,-0.16140961065888407,-0.21127557937055827,0.0034627211093902588,274.99361816665623,0.44876678466796877,0.07694000244140625,-9.771080932617188,274.99113616667455,-0.0009201462380588055,-0.0008876526262611151,-0.0007039755582809448,274.99361816665623
2025-10-02 14:15:42.754283,0.6052142653986812,0.2958293874934316,-9.786842687129974,275.1227351666312,-0.15899222552776338,-0.26858605859801177,-0.01597166955471039,275.1227351666312,0.4474195861816406,0.026345214843750003,-9.797426147460937,275.1202531666495,-0.0005807369016110897,-0.0038294228725135326,-0.000939343124628067,275.1227351666312
2025-10-02 14:15:42.881112,0.6053130833432079,0.29411935100331904,-9.786890634298326,275.2518521666643,-0.16747350219637155,-0.2565474455617368,-0.0052975773811340336,275.2518521666643,0.43544448852539064,0.04834945678710938,-9.799072723388672,275.24937016668264,-0.0006050122901797295,0.0022283948492258787,0.0002592378295958042,275.2518521666643
2025-10-02 14:15:43.053222,0.6022723850235343,0.2917083247192204,-9.78715083539486,275.42069816665025,-0.15994206916540862,-0.17450198331847788,-0.0003976106643676758,275.42069816665025,0.43888732910156253,0.11316467285156251,-9.784852294921876,275.41821616666857,-0.0008401931263506413,0.0013719359412789345,-0.0011274251155555248,275.42069816665025
2025-10-02 14:15:43.213870,0.6003466776385904,0.2887280354462564,-9.787357826828957,275.5796111666714,-0.14664001900702717,-0.28573416966944937,-0.010219763517379762,275.5796111666714,0.4493655395507813,0.0031434631347656253,-9.79892303466797,275.5771291666315,-0.0005952338688075542,-0.00019088442786596715,-0.00030158739537000656,275.5796111666714
2025-10-02 14:15:43.365010,0.5979838908836246,0.28538017557933926,-9.787595808506012,275.7385241666343,-0.15400732800364494,-0.16757520720362665,-0.024347805976867677,275.7385241666343,0.4432283020019531,0.11555969238281251,-9.807455291748047,275.7360421666526,0.001662412192672491,-0.0028092360589653254,-0.0003565852530300617,275.7385241666343
2025-10-02 14:15:43.540247,0.5914085507020355,0.27913401536643506,-9.788178191184999,275.85770916665206,-0.15551499601453544,-0.1740525151602924,0.003176207542419434,275.85770916665206,0.43963577270507814,0.113763427734375,-9.793384552001953,275.8552271666704,0.0028937412425875664,0.00194649922195822,-9.966222569346428e-05,275.85770916665206
2025-10-02 14:15:43.688473,0.5894707103446126,0.2754722331091762,-9.788397461771966,276.06628320831805,-0.1511822457611561,-0.25855746248736977,-0.006183430552482605,276.06628320831805,0.44756927490234377,0.0034428405761718754,-9.802665252685548,276.0638012083364,0.0014284956268966198,0.0032263987231999636,0.001381546026095748,276.06628320831805
2025-10-02 14:15:43.829929,0.5876816450804472,0.27249103020876647,-9.788591004610062,276.2053322083084,-0.14400424037128687,-0.4337057458609343,-0.010482888221740724,276.2053322083084,0.44262954711914065,-0.1580712890625,-9.804760894775391,276.2028502083267,0.0003789053298532963,-0.002082780934870243,-0.001447988674044609,276.2053322083084
2025-10-02 14:15:43.950983,0.5858481775224209,0.27031361846253277,-9.78876115858555,276.32451720832614,-0.1478589076548815,-0.1742134232260287,-0.010612696409225464,276.32451720832614,0.4427792358398438,0.10987152099609375,-9.799222412109376,276.32203520834446,-0.0024112726096063852,-0.0014791407156735659,-0.00027702609077095985,276.32451720832614
2025-10-02 14:15:44.076613,0.5822021827474236,0.2682314249686897,-9.78903656244278,276.4437022083439,-0.13672840375453235,-0.1368046733736992,-0.008691301345825195,276.4437022083439,0.4486170959472656,0.1407073974609375,-9.790091400146485,276.441220208304,-0.0017905381973832846,-0.001436189515516162,0.0006770810578018427,276.4437022083439
2025-10-02 14:15:44.260632,0.5813961075246334,0.26584917794913054,-9.78914590537548,276.6224802083452,-0.1387665604054928,-0.36988287538290027,-0.0045368546247482305,276.6224802083452,0.4432283020019531,-0.113763427734375,-9.80131805419922,276.61999820830533,0.0032788817770779133,0.0029621736612170935,0.0005957041867077351,276.6224802083452
2025-10-02 14:15:44.394571,0.5800831883400679,0.2633454367518425,-9.789292670488358,276.77146120835096,-0.10781534761190414,-0.18700422573834657,0.011176367998123169,276.77146120835096,0.4315525817871094,0.08577163696289063,-9.794881439208984,276.76897920831107,0.00955805741250515,0.046805355697870255,-0.003665489610284567,276.77146120835096
2025-10-02 14:15:44.553034,0.5765166791528463,0.2621807627566159,-9.789535329937936,276.9204424166819,-0.15708892028778793,0.049171776305884124,-0.0010057210922241211,276.9204424166819,0.4700225830078125,0.33141082763671875,-9.785451049804688,276.917960416642,0.01533883810043335,0.0160434041172266,-0.06670991331338882,276.9204424166819
2025-10-02 14:15:44.683408,0.5805491017922759,0.25915068078786135,-9.789376870393754,277.05949141667224,-0.1503437550365925,-0.3113920808583498,0.013955549597740174,277.05949141667224,0.4590953063964844,-0.13936019897460938,-9.757159881591797,277.05700941663235,0.02065753936767578,0.07386912405490875,-0.08000484108924866,277.05949141667224
2025-10-02 14:15:44.847115,0.5752891293168069,0.2566357750631869,-9.789754600524903,277.1786764166318,-0.13909619718790056,-0.6247203209996224,-0.044944038391113286,277.1786764166318,0.43963577270507814,-0.38290374755859374,-9.844578094482422,277.1761944166501,0.0009103990159928799,-0.012697973288595676,8.282298222184181e-05,277.1786764166318
2025-10-02 14:15:45.024415,0.562395726442337,0.2551228445582092,-9.790543974637986,277.3872504166793,-0.14671007595956326,-0.16860272744670513,-0.01781061887741089,277.3872504166793,0.3956272888183594,0.07170089721679689,-9.804461517333985,277.3847684166394,0.0011948826722800732,-0.0006842907168902457,-0.0018394538201391697,277.3872504166793
2025-10-02 14:15:45.194243,0.5589532513171435,0.25410086089745165,-9.790766753554344,277.56602841668064,-0.14087258130311966,-0.15545595740899446,-0.004264959096908569,277.56602841668064,0.4147874450683594,0.10568023681640626,-9.804760894775391,277.56354641664075,1.8820632249116898e-05,-0.002077393000945449,0.0026842893566936255,277.56602841668064
2025-10-02 14:15:45.318860,0.5563025257363916,0.25335340401157735,-9.790938076972962,277.6951454166556,-0.13462928988039494,-0.1961722761578858,-0.017416516542434694,277.6951454166556,0.42691223144531254,0.062120819091796876,-9.785451049804688,277.6926634166739,-0.001558222807943821,9.323377162218094e-05,-6.20158389210701e-05,277.6951454166556
2025-10-02 14:15:45.471223,0.5543676455318928,0.25153153952211144,-9.791091858744622,277.8441264166613,-0.13434124141931533,-0.10528571421280504,0.011630111932754518,277.8441264166613,0.4209246826171875,0.1478924560546875,-9.79802490234375,277.8416444166796,-0.00067515904083848,0.00034482713090255857,-0.0016797259449958801,277.8441264166613
2025-10-02 14:15:45.678898,0.5461512111872435,0.24649606358259918,-9.791680673360824,278.0427679583081,-0.13001671381294727,-0.17344802269712092,-0.010533174276351929,278.0427679583081,0.4177812194824219,0.07813751220703126,-9.801617431640626,278.0402859583264,-0.002667242893949151,0.0007715770625509322,0.0003842981532216072,278.0427679583081
2025-10-02 14:15:45.791627,0.541538817845285,0.24193497955799104,-9.792051971554757,278.16195295832586,-0.11612358324229718,-0.2223257936909795,-0.009264913201332093,278.16195295832586,0.4186793518066406,0.010927276611328125,-9.796228637695313,278.1594709583442,0.0018069827929139137,-0.0013909575063735247,0.0005333255976438522,278.16195295832586
2025-10-02 14:15:45.916054,0.539542176425457,0.23882998013868928,-9.792241421341897,278.2811379583436,-0.1243055921047926,-0.24182371800765395,-0.005036791563034058,278.2811379583436,0.41987686157226567,0.001347198486328125,-9.802515563964844,278.2786559583037,0.0018039979040622711,0.0006067006615921855,-0.00037914887070655823,278.2811379583436
2025-10-02 14:15:46.086569,0.5341533093899489,0.22950043693184854,-9.79275889992714,278.44005095830653,-0.12146139677613975,-0.1598951635323465,-0.005865926742553711,278.44005095830653,0.41044647216796876,0.0700543212890625,-9.799671478271485,278.43756895832485,0.0006014793179929256,4.666956374421716e-05,0.002604021690785885,278.44005095830653
2025-10-02 14:15:46.230977,0.5258572432771326,0.21848930759355428,-9.793460565805436,278.59896395832766,-0.1137640855461359,-0.18361183566972614,-0.014145584106445314,278.59896395832766,0.4189787292480469,0.02784210205078125,-9.808802490234376,278.596481958346,0.001825036946684122,-0.001775230630300939,0.001612629508599639,278.59896395832766
2025-10-02 14:15:46.366391,0.518302786834538,0.20676045080646874,-9.794114869236946,278.7380139583256,-0.10291665997356177,-0.1471843582391739,-0.00824925184249878,278.7380139583256,0.4194277954101563,0.05703140258789063,-9.80086898803711,278.7355319583439,0.0008115614764392376,0.001571787055581808,0.0005793794989585876,278.7380139583256
2025-10-02 14:15:46.515757,0.5116543930023909,0.19892183795571328,-9.794626500606537,278.87706295831595,-0.0988130109384656,-0.15206930492073298,-0.01252765953540802,278.87706295831595,0.4141886901855469,0.047451324462890625,-9.803862762451173,278.87458095833426,-0.00097952364012599,-0.0016946328105404973,0.0006581209599971771,278.87706295831595
2025-10-02 14:15:46.683255,0.5041474451869726,0.18854266472160816,-9.795225255489349,279.04590854165144,-0.08397109653800726,-0.14169005859643222,0.000790543556213379,279.04590854165144,0.4129911804199219,0.053438873291015626,-9.795779571533204,279.04342654166976,-6.284844130277634e-05,0.001241764985024929,0.0012032133527100086,279.04590854165144
2025-10-02 14:15:46.806507,0.4990690287575126,0.1824392679333687,-9.795596553683282,279.1750255416846,-0.07066001974046231,-0.1409755288437009,-0.007066944837570191,279.1750255416846,0.417930908203125,0.03817062377929688,-9.802066497802734,279.1725435416447,-0.0008527110330760479,-0.0015136421425268054,-0.0013239812105894089,279.1750255416846
2025-10-02 14:15:47.018482,0.4924055052548647,0.1716709807701409,-9.796131573915481,279.3935315416311,-0.07896518558263779,-0.129758120700717,-0.003990139961242676,279.3935315416311,0.4194277954101563,0.04026626586914063,-9.802066497802734,279.3910495416494,0.00022182147949934006,-0.0011069588363170624,0.0025638947263360023,279.3935315416311
2025-10-02 14:15:47.252297,0.48552760820835833,0.1620680254139006,-9.796637942790985,279.6319015416666,-0.06924320284277201,-0.11626325860619545,-0.001537817716598511,279.6319015416666,0.4123924255371094,0.046253814697265624,-9.793833618164063,279.6294195416849,0.001002452801913023,0.0011824507964774966,0.00067877396941185,279.6319015416666
2025-10-02 14:15:47.373210,0.48293363716453314,0.15799240646883847,-9.796833239793777,279.74115454166895,-0.06575109947472811,-0.10844542164355517,0.0009028100967407227,279.74115454166895,0.41344024658203127,0.05403762817382813,-9.792486419677735,279.73867254162906,-0.0008550756610929966,0.00022123137023299932,-0.0016546244733035564,279.74115454166895
2025-10-02 14:15:47.546868,0.47971646256744865,0.15227800483815374,-9.797079407572747,279.9099994583521,-0.06013901498168707,-0.10841921880841256,0.00085193932056427,279.9099994583521,0.42047561645507814,0.04834945678710938,-9.790390777587891,279.9075174583122,-0.0011219624429941177,-0.0027025542221963406,-0.0012653241865336895,279.9099994583521
2025-10-02 14:15:47.680167,0.47645064644515517,0.14753140876069665,-9.797314465641977,280.04904845834244,-0.05582526817917824,-0.10307384043931962,-0.002658144235610962,280.04904845834244,0.41733215332031254,0.04296066284179688,-9.797875213623048,280.04656645830255,-0.0025958744809031487,-0.0008083774009719491,-0.000480742659419775,280.04904845834244
2025-10-02 14:15:47.863556,0.47297827742993837,0.14168369974941017,-9.797565895915032,280.23775845830096,-0.04711394011974335,-0.09632804478518665,0.010020373463630676,280.23775845830096,0.42122406005859375,0.044756927490234376,-9.788594512939454,280.2352764583193,-0.002476185094565153,0.0004772965330630541,0.00044282060116529465,280.23775845830096
