timestamp,gravity_x,gravity_y,gravity_z,gravity_time,lin_acc_x,lin_acc_y,lin_acc_z,lin_acc_time,acc_x,acc_y,acc_z,acc_time,gyro_x,gyro_y,gyro_z,gyro_time
2025-10-02 14:11:28.050558,0.33386669475585223,0.10851692212745548,-9.803717166781427,20.421850166632794,-0.0018570756912231446,0.013030337356030942,0.0034463489055633545,20.421850166632794,0.33320709228515627,0.12319381713867188,-9.802216186523438,20.41936816665111,-0.000799031462520361,0.001915401197038591,0.0013975307811051607,20.421850166632794
2025-10-02 14:11:28.171159,0.33341444917023183,0.10872289029881359,-9.803731200098992,20.54103016667068,0.0039840003848075865,0.0033939706441015005,0.01453617811203003,20.54103016667068,0.3387455749511719,0.11256591796875001,-9.79413299560547,20.53854816663079,-0.0006426363252103329,-0.0008575957617722452,-0.0008966736495494843,20.54103016667068
2025-10-02 14:11:28.285269,0.33344675503671173,0.1084767590649426,-9.803730615377427,20.6502770416555,0.00874162394553423,0.007681688200682402,0.001065947413444519,20.6502770416555,0.34203872680664066,0.11421249389648438,-9.806108093261718,20.647795041673817,-0.0002586338669061661,-0.001527278102003038,0.0026135588996112347,20.6502770416555
2025-10-02 14:11:28.406040,0.33334548857063057,0.10837144522927702,-9.803738216757775,20.77938804164296,-0.0008868033438920976,-0.003439642880111933,0.012597241401672364,20.77938804164296,0.33664993286132816,0.11091934204101563,-9.796378326416017,20.776906041661277,0.003188531380146742,-0.00039724435191601515,0.00026658736169338226,20.77938804164296
2025-10-02 14:11:28.573012,0.33302911765873433,0.10893192825838924,-9.803739386200906,20.938294041668996,0.011404555588960648,0.005430236086249352,0.0006262367963790894,20.938294041668996,0.34563125610351564,0.11391311645507814,-9.807006225585939,20.935812041629106,-4.711514338850975e-05,-0.0021083629690110683,0.0005271784029901028,20.938294041668996
2025-10-02 14:11:28.695696,0.3334134259074927,0.109850553246215,-9.803718920946121,21.067405041656457,0.005182496868073941,-0.0004280892759561539,0.003597207069396973,21.067405041656457,0.336500244140625,0.10747650146484375,-9.804012451171875,21.064923041674774,-0.0006620893254876137,0.00047499535139650106,-0.0005439575761556625,21.067405041656457
2025-10-02 14:11:28.911827,0.3345036392658949,0.11033969110809268,-9.803673897385599,21.246174041647464,0.013073533661663533,-0.0021147551760077477,0.004452069997787476,21.246174041647464,0.3496728515625,0.10328521728515626,-9.797575836181641,21.24369204166578,-0.001095266081392765,0.0005925294244661927,-0.0011298088356852531,21.246174041647464
2025-10-02 14:11:29.040191,0.3352295710891485,0.1105636211950332,-9.8036452460289,21.405079041665886,0.004863129258155823,0.004097911454737186,0.0030773895978927616,21.405079041665886,0.34143997192382813,0.11256591796875001,-9.7956298828125,21.402597041684203,-0.002537714084610343,0.003407674841582775,-0.0009845751337707043,21.405079041665886
2025-10-02 14:11:29.174681,0.3350760085880757,0.11095434310846031,-9.803647000193596,21.544122041668743,-0.0012701979652047159,0.00879661518149078,-0.0002145928144454956,21.544122041668743,0.33635055541992187,0.11885284423828125,-9.79368392944336,21.541640041628852,0.0014488152228295803,0.0003165966481901705,0.001090392004698515,21.544122041668743
2025-10-02 14:11:29.304755,0.3351338229328394,0.1109892162680626,-9.803648169636727,21.67323345830664,-0.0011782139539718629,0.0033729937579482796,0.012956260442733765,21.67323345830664,0.3330574035644531,0.11331436157226563,-9.79083984375,21.670751458324958,0.0013441494666039944,-0.0018488301429897547,0.0006908602081239223,21.67323345830664
2025-10-02 14:11:29.508207,0.3350857295840979,0.11113485761918128,-9.803648754358292,21.871865458320826,0.0011152102053165437,0.005023626191541552,0.00592089056968689,21.871865458320826,0.3400927734375,0.11361373901367187,-9.806706848144533,21.869383458339144,-0.002541220746934414,-0.00038235471583902836,-0.0012118336744606495,21.871865458320826
2025-10-02 14:11:29.629366,0.33480221271514893,0.11086323617957533,-9.803659864068031,22.000976458308287,-0.003840378150343895,0.004995861053466797,0.0020406782627105714,22.000976458308287,0.33171020507812504,0.113763427734375,-9.7956298828125,21.998494458326604,-0.000989170279353857,0.0007821493782103062,-0.0005594086833298206,22.000976458308287
2025-10-02 14:11:29.785978,0.334904136992991,0.11104708543047309,-9.803652262687683,22.159882458334323,0.0065357983857393265,0.001219445960596204,8.946239948272705e-05,22.159882458334323,0.3333567810058594,0.11421249389648438,-9.805359649658204,22.15740045835264,-0.0013027316890656948,-0.0009467342169955373,-0.00015712156891822815,22.159882458334323
2025-10-02 14:11:29.898882,0.3354314096644521,0.11098602770827712,-9.803634136319161,22.269129458349198,-0.001775324307382107,0.0015798537153750658,0.008006007671356202,22.269129458349198,0.33635055541992187,0.11226654052734375,-9.80281494140625,22.266647458309308,0.0002153860405087471,-0.0013013894204050303,-0.0014132014475762844,22.269129458349198
2025-10-02 14:11:30.051568,0.3350763374939561,0.1112404181342572,-9.803645830750465,22.388309458328877,-0.001120801605284214,0.007313048662617803,0.0053209662437438965,22.388309458328877,0.33769775390625,0.11511062622070313,-9.79997085571289,22.385827458347194,-0.00024380534887313843,-0.0002572799858171493,0.002066988032311201,22.388309458328877
2025-10-02 14:11:30.179704,0.33549393832683566,0.1110009381081909,-9.8036317974329,22.547215458296705,0.00789195042103529,0.0030618579313158993,-0.00037889957427978516,22.547215458296705,0.3415896606445313,0.12064910888671876,-9.797725524902344,22.544733458315022,0.0005245027132332325,0.0010899333283305168,0.00155245466157794,22.547215458296705
2025-10-02 14:11:30.304046,0.3356620092317462,0.11105389195494354,-9.803626534938813,22.67632516665617,-0.007843747437000274,0.006002678498625755,-0.00023564279079437258,22.67632516665617,0.33664993286132816,0.11451187133789063,-9.8052099609375,22.673843166674487,0.0019445409998297691,-0.00014788631233386695,0.000706525519490242,22.67632516665617
2025-10-02 14:11:30.455837,0.33627139873802664,0.1110753073822707,-9.803603146076203,22.825300166674424,0.005617529712617398,-0.003000087579712272,0.006928365826606751,22.825300166674424,0.34443374633789064,0.10627899169921876,-9.801467742919922,22.822818166634534,-4.2819883674383163e-05,0.0006483913748525083,0.00011294567957520485,22.825300166674424
2025-10-02 14:11:30.606898,0.3359506789594889,0.11066639514639974,-9.80361951828003,22.974274166685063,0.0005495286360383034,0.0093839405849576,0.0032013505697250366,22.974274166685063,0.34024246215820314,0.11960128784179688,-9.804461517333985,22.971792166645173,0.002667653374373913,0.0012443286832422018,0.0025630563031882048,22.974274166685063
2025-10-02 14:11:30.749701,0.33602705821394924,0.11060505419969559,-9.803618933558464,23.113316166680306,-0.005813740342855454,0.008098101317882538,0.003798351287841797,23.113316166680306,0.34084121704101566,0.12124786376953126,-9.796677703857423,23.110834166640416,-0.00029350025579333305,0.0009373759385198355,0.0007217826787382364,23.113316166680306
2025-10-02 14:11:30.867160,0.33642697121948006,0.11104055299423636,-9.803599637746812,23.232496166659985,-7.64157995581627e-05,-0.0007199658360332251,0.0030311965942382813,23.232496166659985,0.33245864868164066,0.11256591796875001,-9.80236587524414,23.230014166678302,-9.697908535599709e-05,0.00020334037253633142,0.0017673196271061897,23.232496166659985
2025-10-02 14:11:30.978637,0.3361438198015094,0.11131673343479634,-9.80360606968403,23.35167516663205,5.701035261154175e-05,0.004692015973851085,-0.0013033443689346314,23.35167516663205,0.33829650878906253,0.111368408203125,-9.794881439208984,23.349193166650366,0.0008629104122519493,0.004041899926960468,0.0001512877643108368,23.35167516663205
2025-10-02 14:11:31.122234,0.336347777992487,0.11122242880985142,-9.803601976633072,23.4907171666855,0.008385345786809922,0.009875746238976718,0.0013857901096343995,23.4907171666855,0.33904495239257815,0.12064910888671876,-9.79892303466797,23.48823516664561,0.000921289436519146,0.003231811337172985,-1.5449710190296173e-05,23.4907171666855
2025-10-02 14:11:31.269448,0.3365422710031271,0.11175388589501381,-9.803589112758637,23.639692166645546,0.002652370110154152,0.0002132771909236908,0.0015226149559020997,23.639692166645546,0.34143997192382813,0.1119671630859375,-9.806706848144533,23.637210166663863,0.00026944326236844063,-0.000649412686470896,-0.00013581616804003716,23.639692166645546
2025-10-02 14:11:31.401747,0.33637957222759723,0.11237746403552593,-9.803587943315506,23.76880341663491,-0.007812830284237862,0.006475380202755333,0.012748099565505983,23.76880341663491,0.33440460205078126,0.11960128784179688,-9.799821166992189,23.766321416653227,-0.00031828274950385094,0.002503874944522977,-0.0002272571437060833,23.76880341663491
2025-10-02 14:11:31.552090,0.33602307479828597,0.11272625958546997,-9.803593205809594,23.88798241666518,0.0012255398556590082,0.002534037083387375,0.0009302920103073121,23.88798241666518,0.3381468200683594,0.11660751342773439,-9.803413696289063,23.8855004166835,-0.0013559204526245594,0.0017848332645371556,-0.0004032999277114868,23.88798241666518
2025-10-02 14:11:31.683836,0.3364518949761987,0.11310466580092908,-9.803574494719506,24.056819416640792,0.007083682492375374,-0.0005387661047279835,0.010491074323654176,24.056819416640792,0.33724868774414063,0.11585906982421876,-9.788744201660156,24.05433741665911,0.0002756388857960701,-0.0018815973307937384,0.0002787602134048939,24.056819416640792
2025-10-02 14:11:31.877519,0.33661046415567397,0.11350186533294619,-9.803569232225419,24.245520416647196,-0.0059480070322752,0.0013094108551740648,0.00539230227470398,24.245520416647196,0.33141082763671875,0.11900253295898439,-9.799372100830078,24.243038416665513,0.0024469345808029175,-0.000844969879835844,0.0006973501294851303,24.245520416647196
2025-10-02 14:11:31.999034,0.3365292974933982,0.1132624035794288,-9.80357390999794,24.364699416677468,0.0029647576063871386,-0.0050374402385205035,0.010636085271835329,24.364699416677468,0.34248779296875004,0.11121871948242187,-9.791588287353516,24.362217416637577,-0.0017766871023923159,0.0007983928662724793,-0.0007811747491359711,24.364699416677468
2025-10-02 14:11:32.194843,0.3365598126500845,0.11373858620412648,-9.803566893339157,24.563331416633446,0.0027845537289977076,-0.0038670560717582706,-0.0011951708793640136,24.563331416633446,0.3362008666992188,0.11002120971679688,-9.806407470703126,24.560849416651763,-0.0012048259377479553,-0.0012711593881249428,0.00029068952426314354,24.563331416633446
2025-10-02 14:11:32.317256,0.3367840899154544,0.11406538160517812,-9.803555198907853,24.682511208346114,0.0018117963150143625,0.0022427635174244644,0.008971967697143556,24.682511208346114,0.34099090576171875,0.11555969238281251,-9.793833618164063,24.680029208306223,0.00057242251932621,-5.626078927889466e-05,0.0020897272042930126,24.682511208346114
2025-10-02 14:11:32.483541,0.3364421374350786,0.11441483496688307,-9.803561046123505,24.851348208321724,0.002602778412401676,0.003988933973014355,0.004039841294288636,24.851348208321724,0.3288661193847656,0.11630813598632814,-9.801617431640626,24.84886620834004,-0.002198528265580535,-8.951511699706316e-05,-0.0020167618058621883,24.851348208321724
2025-10-02 14:11:32.635191,0.3363221233338118,0.1146849306486547,-9.803559291958809,25.000322208332364,0.008410890810191632,0.007161651458591223,0.0026938122510910037,25.000322208332364,0.3393443298339844,0.12049942016601563,-9.801467742919922,24.99784020835068,0.0007796846330165863,-0.0008819818031042814,0.001385536277666688,25.000322208332364
2025-10-02 14:11:32.778122,0.3361588398367167,0.11550105577334763,-9.803559876680374,25.13936520833522,-0.00025731403380632403,-0.0006897978577762843,0.0028394079208374024,25.13936520833522,0.3423381042480469,0.1143621826171875,-9.802066497802734,25.13688320829533,0.0013082041405141354,0.002694393740966916,0.0031654941849410534,25.13936520833522
2025-10-02 14:11:32.901472,0.33635702390223743,0.11511112871579826,-9.803555783629418,25.26847620832268,0.0055319776386022574,0.004041074691340327,0.008076174259185791,25.26847620832268,0.3411405944824219,0.11705657958984375,-9.796378326416017,25.265994208341,0.0022852951660752296,0.0002751980209723115,-0.0010765553452074528,25.26847620832268
2025-10-02 14:11:33.082264,0.3365084667876363,0.11488993037492037,-9.803553444743157,25.44724520831369,-8.259192109107971e-06,0.002166630942374468,0.0019365978240966798,25.44724520831369,0.33605117797851564,0.11466156005859375,-9.800270233154297,25.444763208332006,0.002335921861231327,0.0022501342464238405,0.0006820645648986101,25.44724520831369
2025-10-02 14:11:33.230786,0.3365351812541485,0.1139509680401534,-9.803563385009767,25.57635620830115,0.004305999241769314,0.005949688106775284,0.003742802739143372,25.57635620830115,0.33679962158203125,0.12109817504882812,-9.798174591064454,25.573874208319467,-0.00017661647871136665,0.00010879698675125837,0.0007996316999197006,25.57635620830115
2025-10-02 14:11:33.400735,0.33597695488482715,0.11439862721599639,-9.803576248884202,25.75512466666987,-0.007859315648674965,-0.003329614726826549,0.009295318722724915,25.75512466666987,0.32901580810546877,0.11780502319335938,-9.794432373046876,25.75264266662998,0.00034833699464797974,0.002226754790171981,0.0017373922746628523,25.75512466666987
2025-10-02 14:11:33.549681,0.3364251805096865,0.11517219557426871,-9.803553444743157,25.90409866668051,-0.000523727796971798,-0.0027559754624962808,-0.0052490454912185675,25.90409866668051,0.33679962158203125,0.11346405029296876,-9.808652801513672,25.90161666664062,0.0005693715065717697,-0.000812852056697011,-0.0020263493061065674,25.90409866668051
2025-10-02 14:11:33.715235,0.3365230482816696,0.11440940801985562,-9.803562215566636,26.08286766667152,-0.0030164689198136333,0.00025218858383595943,0.012868552207946778,26.08286766667152,0.3308120727539063,0.11316467285156251,-9.796228637695313,26.080385666631628,-0.0035026646219193935,-0.0009498074068687856,-0.0009638350456953049,26.08286766667152
2025-10-02 14:11:33.839483,0.3361223678290844,0.1149037901032716,-9.803566308617592,26.21197866665898,7.846232503652573e-05,-0.0006913053430616856,0.00838607668876648,26.21197866665898,0.33829650878906253,0.108973388671875,-9.791139221191406,26.209496666677296,0.0009371507912874222,-0.0022740091662853956,0.0005420721136033535,26.21197866665898
2025-10-02 14:11:33.996980,0.3365213672071696,0.11490996622480452,-9.803555198907853,26.36095266666962,0.007912452220916749,-0.002643407424911857,-0.0034533655643463135,26.36095266666962,0.3426374816894531,0.11555969238281251,-9.814340972900391,26.358470666629728,-0.0009492188692092896,-0.00189963448792696,-0.001753621269017458,26.36095266666962
2025-10-02 14:11:34.137231,0.33601043019443755,0.11509979059919716,-9.803569232225419,26.49999466666486,0.002735181301832199,-0.0016357220336794855,0.0010524988174438477,26.49999466666486,0.34203872680664066,0.11840377807617188,-9.803563385009767,26.49751266668318,-0.0016517310868948698,0.00011830363655462861,-0.0026902593672275543,26.49999466666486
2025-10-02 14:11:34.274814,0.3358324555680156,0.11544538845308126,-9.803568647503853,26.63903766666772,0.0020149139687418937,-0.0027298091724514964,0.0012045264244079591,26.63903766666772,0.33799713134765624,0.10777587890625001,-9.797276458740235,26.636555666686036,0.0017175190150737762,-0.0013136651832610369,-0.0009722718968987465,26.63903766666772
2025-10-02 14:11:34.388930,0.33589330315589905,0.11507770822383465,-9.803572155833244,26.758216833346523,0.0007566297054290772,-0.004607432344928384,0.007194414138793946,26.758216833346523,0.3338058471679688,0.10508148193359376,-9.79368392944336,26.755734833306633,-7.898500189185143e-05,0.0010657270904630423,-0.0005193296819925308,26.758216833346523
2025-10-02 14:11:34.592340,0.33620514247566463,0.11515848202630878,-9.803559876680374,26.9568488333025,0.0023907072097063067,-0.002143516167998314,0.009727427959442139,26.9568488333025,0.3381468200683594,0.11720626831054688,-9.797725524902344,26.95436683332082,0.0005639046430587769,0.0006680730730295181,0.0016429130919277668,26.9568488333025
2025-10-02 14:11:34.721884,0.33673519257456064,0.11576974446885288,-9.80353473365307,27.08595983334817,0.005602875128388405,-0.0009585048258304597,-0.00017717063426971437,27.08595983334817,0.33709899902343754,0.1191522216796875,-9.802964630126954,27.08347783330828,-0.0001066490076482296,-0.003177274251356721,-0.0018697171472012997,27.08595983334817
2025-10-02 14:11:34.880076,0.3362593754008413,0.11531335101462901,-9.803558122515678,27.244865833316,-0.006944189853966236,-0.0028971126303076744,0.0002935302257537842,27.244865833316,0.3399430847167969,0.11585906982421876,-9.807754669189453,27.242383833334316,0.0036348565481603146,-0.0011761512141674757,-1.865345984697342e-05,27.244865833316
2025-10-02 14:11:35.011118,0.3364146189764142,0.11513772441074253,-9.803555198907853,27.37397683330346,0.0020316150784492493,-0.006314006187021733,0.011067609786987306,27.37397683330346,0.34024246215820314,0.10987152099609375,-9.795779571533204,27.371494833321776,-0.0010764766484498978,0.0002425859565846622,0.0006697997450828552,27.37397683330346
2025-10-02 14:11:35.163880,0.3366812520101667,0.11496162272058429,-9.803547597527505,27.5229508333141,-0.0004803853109478951,-0.008383253579959274,0.003276779651641846,27.5229508333141,0.3369493103027344,0.10553054809570313,-9.799222412109376,27.520468833332416,0.0016407174989581108,-0.00022231691400520504,0.00034665828570723534,27.5229508333141
2025-10-02 14:11:35.294175,0.33721451807767155,0.11433524888008834,-9.803537657260895,27.661994583322667,-0.008947117030620575,0.0010747639182955026,0.002218433618545532,27.661994583322667,0.3309617614746094,0.11555969238281251,-9.800719299316407,27.659512583340984,-0.0013231332413852215,0.0014984254958108068,0.0015803307760506868,27.661994583322667
2025-10-02 14:11:35.409286,0.337130318172276,0.11467366562224925,-9.803532394766808,27.78117358335294,0.002213938571512699,0.0068735481798648836,0.008802983164787294,27.78117358335294,0.3369493103027344,0.11750564575195313,-9.793384552001953,27.778691583313048,0.0008254945278167725,-0.0025155912153422832,0.0006295989733189344,27.78117358335294
2025-10-02 14:11:35.538728,0.3370253971964121,0.11456403032876551,-9.803541165590287,27.9102845833404,0.004564263448119164,-0.006339085260406137,0.008658556938171387,27.9102845833404,0.3411405944824219,0.11181747436523438,-9.80281494140625,27.90780258330051,-0.0025910628028213978,-0.00021065305918455124,0.0004151593893766403,27.9102845833404
2025-10-02 14:11:35.829790,0.33706004194915296,0.1155570611357689,-9.80352479338646,28.198301583295688,0.0055773666501045226,-0.0023924156930297613,0.005801607370376587,28.198301583295688,0.33769775390625,0.11166778564453125,-9.794432373046876,28.195819583314005,-0.0008273553103208542,0.002022742759436369,-0.0009825085289776325,28.198301583295688
2025-10-02 14:11:35.957797,0.336917114071548,0.11517833515070379,-9.803535903096199,28.327412583341356,0.005720331072807313,-0.003809945220127702,0.004463764429092408,28.327412583341356,0.3357518005371094,0.11870315551757814,-9.795929260253907,28.324930583301466,0.0005307230167090893,-0.00043298149830661714,0.0005217306315898895,28.327412583341356
2025-10-02 14:11:36.081143,0.3370547063648701,0.11557231871411205,-9.80352479338646,28.44659158331342,-0.0022011112421751024,-0.0015095409471541643,0.008645693063735962,28.44659158331342,0.33679962158203125,0.11271560668945313,-9.792486419677735,28.444109583331738,0.0020814603194594383,0.00012198375770822167,-0.0022022002376616,28.44659158331342
2025-10-02 14:11:36.200663,0.3371589329838753,0.11475441201590002,-9.803533564209939,28.565771583351307,0.0026344630122184754,0.010085981050506235,-0.004221689701080322,28.565771583351307,0.3396437072753906,0.12409194946289064,-9.799671478271485,28.563289583311416,0.00035094330087304115,-0.0005054768407717347,-0.0009557688608765602,28.565771583351307
2025-10-02 14:11:36.398181,0.3365100747719407,0.11464770946651698,-9.803555198907853,28.764403291628696,0.004480794444680214,0.0061510790046304465,0.010022127628326416,28.764403291628696,0.33979339599609376,0.1149609375,-9.794881439208984,28.761921291647013,0.0007737944833934307,0.0013183836126700044,0.0026011508889496326,28.764403291628696
2025-10-02 14:11:36.656413,0.33670467741787435,0.11396037840284408,-9.803558707237244,28.992830291681457,0.0008434243127703667,0.0012999365385621786,0.0022394835948944094,28.992830291681457,0.33410522460937503,0.10912307739257814,-9.804012451171875,28.990348291641567,0.0010125753469765186,-0.002231055870652199,0.002666030079126358,28.992830291681457
2025-10-02 14:11:36.783790,0.33678310319781307,0.11385012184269727,-9.803558122515678,29.151736291649286,-0.007617569826543331,0.0032064760196954013,0.001190493106842041,29.151736291649286,0.33769775390625,0.1215472412109375,-9.802515563964844,29.149254291667603,0.001978155691176653,-0.0009198525222018361,0.0004259455017745495,29.151736291649286
2025-10-02 14:11:36.992583,0.3362680365890265,0.11325022492557765,-9.803581511378288,29.360299291671254,0.0002322440966963768,0.0051535622868686915,0.012591394186019898,29.360299291671254,0.3384461975097656,0.1167572021484375,-9.788744201660156,29.357817291631363,-0.0011071334592998028,-0.000184316944796592,0.00027958303689956665,29.360299291671254
2025-10-02 14:11:37.118684,0.3359213332459331,0.11291526169516147,-9.80359729886055,29.489410291658714,0.0017764572054147722,0.005937591679394246,0.004674264192581177,29.489410291658714,0.3351530456542969,0.11765533447265626,-9.806257781982422,29.48692829167703,0.0020244657061994076,-0.0007301120785996318,-0.00044667767360806465,29.489410291658714
2025-10-02 14:11:37.348311,0.33606601528823377,0.11345178027637304,-9.803582096099854,29.697974583308678,0.00013477832078933715,-0.003131211390718818,0.006159456968307496,29.697974583308678,0.33769775390625,0.11256591796875001,-9.796827392578125,29.695492583326995,-0.0020519690588116646,-0.000972375157289207,-7.096724584698677e-05,29.697974583308678
2025-10-02 14:11:37.497040,0.3365413573756814,0.11364797263406218,-9.803565139174461,29.86681258335011,0.004748852737247944,0.004306711871176958,0.0012010180950164796,29.86681258335011,0.3338058471679688,0.11541000366210938,-9.806856536865235,29.86433058331022,-0.0011620763689279556,-0.0005926289595663548,0.0005228407680988312,29.86681258335011
2025-10-02 14:11:37.685225,0.3366163479164243,0.11323729709722102,-9.803569816946984,30.0555125833489,0.0024286410212516784,-0.001719191037118435,0.005694018602371216,30.0555125833489,0.3339555358886719,0.11047027587890626,-9.800270233154297,30.05303058330901,-0.0031915144063532352,0.0032444153912365437,-0.000544846523553133,30.0555125833489
2025-10-02 14:11:38.062584,0.336922851651907,0.11301412532106042,-9.803562800288201,30.383256583299953,0.005714703127741814,-0.0034419543575495482,0.0035901904106140138,30.383256583299953,0.34443374633789064,0.10837463378906251,-9.801767120361328,30.38077458331827,0.0003917347639799118,-0.0010011695558205247,0.0008897674269974232,30.383256583299953
2025-10-02 14:11:38.240222,0.3370807264745236,0.11265057468786836,-9.803561046123505,30.611683583352715,0.002113951183855534,-0.0012821573484688997,0.0010443127155303955,30.611683583352715,0.3384461975097656,0.11226654052734375,-9.798324279785156,30.609201583312824,0.0012218467891216278,0.0013077151961624622,0.0003132447600364685,30.611683583352715
2025-10-02 14:11:38.387155,0.33710568677634,0.11232383410446346,-9.803561046123505,30.75072491663741,0.0007416827604174614,0.003235840005800128,-0.0025452929735183716,30.75072491663741,0.33485366821289064,0.113763427734375,-9.79847396850586,30.748242916655727,-0.0008854307234287262,0.0012037118431180716,0.0003925645723938942,30.75072491663741
2025-10-02 14:11:38.533904,0.3365744672343135,0.1123094261996448,-9.803580341935158,30.899699916655663,0.0011232135817408563,0.007740909531712532,0.007502562403678894,30.899699916655663,0.34203872680664066,0.11945159912109375,-9.797426147460937,30.89721791667398,2.5570392608642578e-05,-0.001982683315873146,-0.000847166869789362,30.899699916655663
2025-10-02 14:11:38.668405,0.33628345862030984,0.11250475061126054,-9.803589697480202,31.038741916650906,0.0006658882275223732,-0.0012860219925642014,0.01559335470199585,31.038741916650906,0.34084121704101566,0.11166778564453125,-9.789193267822267,31.036259916669223,0.000373737420886755,-0.00207500159740448,0.0011942479759454727,31.038741916650906
2025-10-02 14:11:38.862624,0.33651128076016906,0.11199786096811296,-9.803588528037071,31.217510916641913,0.009120048433542253,-0.00018035919405519964,-0.0020722532272338867,31.217510916641913,0.3430865478515625,0.11271560668945313,-9.809101867675782,31.21502891666023,0.00010093394666910172,0.0019772620871663094,0.0014422426465898752,31.217510916641913
2025-10-02 14:11:39.013817,0.33636769507080316,0.11201745827682316,-9.803590282201768,31.37641691666795,-0.0037594307586550713,-0.000948445787653327,-0.0007197922468185425,31.37641691666795,0.3309617614746094,0.11002120971679688,-9.798324279785156,31.373934916686267,0.00028964318335056305,-0.001970516284927726,0.0013119203504174948,31.37641691666795
2025-10-02 14:11:39.270159,0.3375019818171859,0.11218033064156771,-9.803552275300026,31.604843916662503,-0.00010360535234212876,-0.0032069328334182502,0.012861535549163819,31.604843916662503,0.33260833740234375,0.11301498413085938,-9.790540466308594,31.60236191668082,0.0002949526533484459,-0.0007176431827247143,-0.0010698344558477402,31.604843916662503
2025-10-02 14:11:39.393384,0.3374072934687138,0.11162654450163245,-9.803558707237244,31.763750333338976,0.005679181292653084,0.0048312710691243415,0.004787115454673767,31.763750333338976,0.34278717041015627,0.11166778564453125,-9.802066497802734,31.761268333299085,0.0012282333336770535,0.0018311509629711509,-0.0008626533672213554,31.763750333338976
2025-10-02 14:11:39.526641,0.3381453948095441,0.11111316810362042,-9.803541165590287,31.892861333326437,-0.0044892729073762894,0.005671799182891846,-0.0009203517436981201,31.892861333326437,0.3299139404296875,0.11765533447265626,-9.80326400756836,31.890379333344754,-0.0011762497015297413,0.0008619669242762029,-0.0019232635386288166,31.892861333326437
2025-10-02 14:11:39.907457,0.3381087035313249,0.1121038600243628,-9.803531225323677,32.21067233331269,-0.0008600523322820664,0.0012104924116283656,0.003111303448677063,32.21067233331269,0.33006362915039067,0.11600875854492188,-9.797126770019531,32.208190333331004,-0.0003902073949575424,-0.0014996833633631468,-0.00011074356734752655,32.21067233331269
2025-10-02 14:11:40.045001,0.3379162205010653,0.11275757873430849,-9.803530640602112,32.39937333331909,0.005170290805399418,0.005047444459050894,0.012241730690002442,32.39937333331909,0.3411405944824219,0.11645782470703125,-9.789792022705079,32.39689133333741,-0.00230798264965415,0.0006937478901818395,0.0029149060137569904,32.39937333331909
2025-10-02 14:11:40.207921,0.33754576284438376,0.11293791051954032,-9.803539996147157,32.54834733332973,-0.00808092512190342,0.0023223952855914833,0.0076113206148147585,32.54834733332973,0.3345542907714844,0.11451187133789063,-9.796827392578125,32.54586533334805,-0.00014128442853689194,-0.0009704220574349165,0.0002079317346215248,32.54834733332973
2025-10-02 14:11:40.335195,0.3372981332615018,0.11283539238385856,-9.803547597527505,32.707253458327614,0.00533927533775568,-0.0020657756086438894,0.0014840233325958253,32.707253458327614,0.33904495239257815,0.11047027587890626,-9.798773345947266,32.70477145834593,0.0006859987042844296,0.002209278754889965,0.0013232615310698748,32.707253458327614
2025-10-02 14:11:40.470246,0.33747957967221737,0.11248572888784111,-9.80355052113533,32.836364458315074,-0.0011289511620998383,0.007414954667910934,0.00956487536430359,32.836364458315074,0.33126113891601566,0.12469070434570313,-9.785151672363282,32.83388245833339,-0.0004995362833142281,0.0004186925361864269,0.00046010082587599754,32.836364458315074
2025-10-02 14:11:40.698970,0.3369267619773746,0.11253767774440349,-9.803565139174461,33.06479145830963,0.006459126770496369,0.0012257408536970615,0.0034463489055633545,33.06479145830963,0.3438349914550781,0.11600875854492188,-9.801617431640626,33.062309458327945,-0.001533040078356862,-0.0005209582159295678,0.0017304299399256706,33.06479145830963
2025-10-02 14:11:40.889736,0.3371763649955392,0.11253620680421592,-9.803556368350984,33.25349245831603,-0.00711280893534422,0.005268788980320096,0.003287889361381531,33.25349245831603,0.3342549133300781,0.11541000366210938,-9.807455291748047,33.25101045833435,0.0005502491258084774,-0.0004844169598072767,0.0004110680893063545,33.25349245831603
2025-10-02 14:11:41.010970,0.3368070767819882,0.11277807139791549,-9.803566308617592,33.38260345830349,0.0026868686825037005,0.0009853197913616896,0.003597207069396973,33.38260345830349,0.34024246215820314,0.11406280517578125,-9.793833618164063,33.38012145832181,0.0007362212054431438,-0.0003774528158828616,0.002320184139534831,33.38260345830349
2025-10-02 14:11:41.169391,0.33716331839561464,0.11179192020557821,-9.803569232225419,33.54150945832953,0.0017320549115538598,0.002719978541135788,0.01137985110282898,33.54150945832953,0.3403921508789063,0.1191522216796875,-9.796528015136719,33.539027458347846,-0.0033388587180525064,-0.00023207522463053465,-0.0005857674404978752,33.54150945832953
2025-10-02 14:11:41.294755,0.3371073313057423,0.11167723255231977,-9.803569816946984,33.66068816668121,-0.0016549447551369668,0.011516575450077653,-0.002537691593170166,33.66068816668121,0.33635055541992187,0.12064910888671876,-9.807155914306641,33.65820616664132,0.003243029583245516,0.0013683257857337594,0.0017128814943134785,33.66068816668121
2025-10-02 14:11:41.464290,0.33708123810589313,0.11134802517481149,-9.803576248884202,33.78979916666867,0.005406591407954693,0.0009185244888067246,0.004951422214508057,33.78979916666867,0.3357518005371094,0.1119671630859375,-9.798174591064454,33.78731716662878,-0.001977412961423397,-0.0006513806874863803,0.0011149703059345484,33.78979916666867
2025-10-02 14:11:41.631342,0.3366614080220461,0.11157000009901823,-9.803586189150812,33.99836316664005,0.001784752942621708,0.0002474651299417019,0.0010712099075317384,33.99836316664005,0.3381468200683594,0.11241622924804688,-9.80086898803711,33.995881166658364,0.002084094565361738,-7.297610864043236e-06,-0.001306760124862194,33.99836316664005
2025-10-02 14:11:41.804330,0.3363672199845314,0.11069667275995017,-9.803606654405595,34.177132166631054,-0.0007651081681251526,0.002468000091612339,0.003037043809890747,34.177132166631054,0.33709899902343754,0.11526031494140626,-9.803114318847657,34.17465016664937,0.0012535909190773964,0.0018023165175691247,6.817933171987534e-05,34.177132166631054
2025-10-02 14:11:41.962616,0.3359035357832909,0.11046192532405258,-9.803624780774117,34.30624316667672,-0.001499006822705269,0.011384684192016721,-8.77082347869873e-05,34.30624316667672,0.33485366821289064,0.12109817504882812,-9.804311828613281,34.30376116663683,-0.0007817712612450123,0.000144010700751096,0.0005787075497210026,34.30624316667672
2025-10-02 14:11:42.128350,0.33537779800593853,0.11025873458012939,-9.803648169636727,34.494944166683126,-0.0012724637612700463,-0.003830017615109682,0.0035247015953063965,34.494944166683126,0.3357518005371094,0.10388397216796875,-9.79892303466797,34.492462166643236,0.0014612190425395966,0.0003093660925514996,0.000540001317858696,34.494944166683126
2025-10-02 14:11:42.285583,0.3352444449439645,0.11081615695729852,-9.80364290714264,34.64391816663556,0.006943934038281441,0.0033963278029114008,0.005768862962722779,34.64391816663556,0.34518218994140626,0.1071771240234375,-9.799821166992189,34.641436166653875,-0.00038586510345339775,-0.0013471668353304267,-3.783544525504112e-05,34.64391816663556
2025-10-02 14:11:42.418305,0.33539497420191766,0.11068883383646608,-9.803639983534813,34.78295979165705,0.0011052333936095238,0.003373971339315176,-0.005461884140968323,34.78295979165705,0.3387455749511719,0.10927276611328125,-9.811945953369142,34.78047779167537,-0.0027179475873708725,0.00036306591937318444,0.0011151651851832867,34.78295979165705
2025-10-02 14:11:42.699912,0.3353696484491229,0.11137242816388608,-9.803634721040726,35.04118179163197,0.011459153965115548,0.003738207193091512,-0.0023248529434204105,35.04118179163197,0.34742752075195316,0.11346405029296876,-9.802066497802734,35.03869979165029,0.000947288703173399,-0.0020854761824011803,0.0020802831277251244,35.04118179163197
2025-10-02 14:11:42.832649,0.33554250676184894,0.11133201842196286,-9.803625365495682,35.20008779165801,0.005148948468267918,0.002581070624291897,-0.004126964807510377,35.20008779165801,0.3362008666992188,0.11181747436523438,-9.80416213989258,35.197605791676324,0.0013874252326786518,0.0003084588679485023,0.0014819854404777288,35.20008779165801
2025-10-02 14:11:42.971922,0.33586443252861503,0.11131973013281823,-9.803617764115334,35.339130791660864,0.0018333579227328301,0.0024437067378312353,0.00020348310470581055,35.339130791660864,0.3406915283203125,0.11316467285156251,-9.806856536865235,35.33664879167918,0.0004803631454706192,-0.00012449134374037385,0.0013193676713854074,35.339130791660864
2025-10-02 14:11:43.189055,0.3359784897789359,0.11127613183110953,-9.803612501621247,35.55762579164002,0.008604908734560013,0.01326487465761602,0.002744683027267456,35.55762579164002,0.3442840576171875,0.12079879760742188,-9.797426147460937,35.55514379165834,0.000529648270457983,-0.00015604693908244371,-0.0035414183512330055,35.55762579164002
2025-10-02 14:11:43.326189,0.33617444459348916,0.1110216865874827,-9.803610162734985,35.67680558335269,0.007361169420182705,-0.004143940005451441,0.012470941543579103,35.67680558335269,0.34099090576171875,0.11047027587890626,-9.79607894897461,35.6743235833128,0.0011717700399458408,-0.0016141885425895452,-0.001809215173125267,35.67680558335269
2025-10-02 14:11:43.446645,0.33645185843110087,0.11098051853477955,-9.803601976633072,35.81584758334793,-0.0035441070422530174,-0.0015580637007951738,0.014706916809082033,35.81584758334793,0.33829650878906253,0.10627899169921876,-9.793234863281251,35.81336558330804,0.000921695027500391,0.00030791573226451874,-0.002483053132891655,35.81584758334793
2025-10-02 14:11:43.640777,0.33721020575612787,0.11113293900154532,-9.803570986390115,36.00454858329613,-0.0028057133406400683,0.0021813951618969442,0.011685075759887696,36.00454858329613,0.3323089599609375,0.1143621826171875,-9.790390777587891,36.002066583314445,-0.0005234437994658947,0.0007861113990657032,-0.0017572245560586452,36.00454858329613
2025-10-02 14:11:43.898949,0.33696027383208277,0.11093427984975279,-9.80358268082142,36.25283858331386,-0.0018072647228837015,0.004924780838191509,-0.002224865555763245,36.25283858331386,0.3399430847167969,0.11286529541015626,-9.806706848144533,36.25035658333218,-0.0004892218858003616,-0.0010757745476439595,0.000530092278495431,36.25283858331386
2025-10-02 14:11:44.021310,0.3374478219822049,0.11075938414782287,-9.803569816946984,36.39188158331672,0.002794640175998211,0.0015071563795208932,-0.0007425963878631592,36.39188158331672,0.3406915283203125,0.113763427734375,-9.796827392578125,36.389399583335035,0.0005830065347254276,0.0011266008950769901,2.3902859538793564e-05,36.39188158331672
2025-10-02 14:11:44.218109,0.33779598712921144,0.11094151577912272,-9.803555783629418,36.570650583307724,0.0012489652633666992,0.00282191195525229,0.013912864923477174,36.570650583307724,0.33679962158203125,0.11211685180664063,-9.784403228759766,36.56816858332604,0.0012752003967761993,0.0013699647970497608,6.398512050509453e-05,36.570650583307724
2025-10-02 14:11:44.352440,0.33803141064941883,0.11107343444600702,-9.80354818224907,36.71962529164739,0.006552097499370575,0.0005943694710731506,0.005071874856948853,36.71962529164739,0.33829650878906253,0.11481124877929688,-9.798623657226562,36.71714329166571,-0.000550548080354929,-0.00012639618944376707,0.0006516887806355953,36.71962529164739
2025-10-02 14:11:44.475917,0.33769954461604357,0.11137741656973958,-9.803552275300026,36.84873629163485,-0.008983150497078896,-0.0015059047099202872,0.0064266747236251835,36.84873629163485,0.329315185546875,0.10732681274414063,-9.791139221191406,36.84625429165317,-0.0023236703127622604,-0.0017725909128785133,0.001239771954715252,36.84873629163485
2025-10-02 14:11:44.647199,0.3382075945660472,0.11199649966321887,-9.803530055880547,37.007642291660886,0.00038832820951938634,0.010448883008211852,0.0028101718425750733,37.007642291660886,0.3359014892578125,0.1149609375,-9.800569610595703,37.0051602916792,0.0012410841882228851,0.0018960931338369846,-0.0025006458163261414,37.007642291660886
2025-10-02 14:11:44.838482,0.33839828688651324,0.11135228267870843,-9.803531225323677,37.20627429167507,-0.0012992147728800774,0.003009927347302437,0.0037083041667938235,37.20627429167507,0.34323623657226565,0.1149609375,-9.797426147460937,37.20379229163518,0.0006202324293553829,-0.000827007635962218,0.0004977688658982515,37.20627429167507
2025-10-02 14:11:44.976088,0.33263000864535575,0.09708233560435474,-9.80388030409813,37.34531729167793,0.17586261212825777,-5.164794130325317,0.023966567516326906,37.34531729167793,0.5542973327636719,-5.2804193115234375,-10.104288024902344,37.34283529163804,-0.0021276818588376045,-0.02365957945585251,-0.012815719470381737,37.34531729167793
2025-10-02 14:11:45.106286,0.35358661226928234,0.10044007178395988,-9.80311139523983,37.46449629164999,0.5792734951525927,-6.662793477773667,-0.10403599977493287,37.46449629164999,0.5480104064941407,-6.836882629394531,-10.385403442382813,37.46201429166831,0.03169756755232811,0.05107329785823822,-0.04317177087068558,37.46449629164999
2025-10-02 14:11:45.231808,0.3538607005029917,0.0406303464062512,-9.80352830171585,37.593607291637454,0.4589489432796836,0.2017156741395593,-0.35958388209342956,37.593607291637454,-0.3487747192382813,0.43065444946289066,-9.02967269897461,37.59112529165577,0.13426637649536133,0.23258966207504272,-0.06740055978298187,37.593607291637454
2025-10-02 14:11:45.398100,0.3406832691282034,0.017318697877926753,-9.804067999720575,37.76244416664122,0.5996612743288279,0.3079549047723413,-0.4177262556552887,37.76244416664122,1.1380833435058595,0.18291961669921875,-12.362492065429688,37.759962166659534,0.07997216284275055,-0.054329290986061096,-0.024626318365335464,37.76244416664122
2025-10-02 14:11:45.567505,0.34206010568886996,0.0016444309017970228,-9.804033501148224,37.901487166644074,-0.07651235170662403,0.06930802471004427,3.748527163267136,37.901487166644074,0.29653335571289063,0.1095721435546875,-10.703491973876954,37.89900516666239,0.07841198146343231,-0.06391126662492752,-0.04534231871366501,37.901487166644074
2025-10-02 14:11:45.736330,0.27133161870762706,-0.015306729215662927,-9.806237901449204,38.07032416667789,2.629486154615879,0.04449602746870369,4.627754269838333,38.07032416667789,1.7772541809082032,0.2197430419921875,-11.558364257812501,38.067842166638,-0.06237024813890457,0.03172461315989494,-0.06859036535024643,38.07032416667789
2025-10-02 14:11:45.902438,0.365937028080225,-0.06640968781895935,-9.802948842644692,38.2490931666689,-0.02853868816047907,0.2418448593467474,2.1806489109992984,38.2490931666689,0.17887802124023439,0.18082397460937502,-8.789871368408203,38.24661116662901,0.17691867053508759,-0.2960573434829712,-0.012625742703676224,38.2490931666689
2025-10-02 14:11:46.114900,0.32117520354688167,-0.1124162657931447,-9.804094896912575,38.48745216667885,0.5251647502183915,0.3097060362249613,-2.5539047527313232,38.48745216667885,0.6867718505859375,0.358055419921875,-11.699820098876954,38.48497016663896,-0.04266134649515152,0.790183424949646,-0.0022040079347789288,38.48745216667885
2025-10-02 14:11:46.238963,0.38589204020798207,-0.14114395606331528,-9.801393483281137,38.60663216665853,1.427586884200573,0.22796338666230442,0.9467051446437836,38.60663216665853,0.045205993652343755,0.2341131591796875,-8.599916381835937,38.604150166676845,-0.04102315753698349,-0.07582002878189087,-0.05257173255085945,38.60663216665853
2025-10-02 14:11:46.472334,0.30762570653110743,-0.13863746484741568,-9.804196638464928,38.8449905833113,-0.6736145921051503,0.1518100722692907,2.296558266878128,38.8449905833113,0.17453704833984376,0.19534378051757814,-12.413236541748047,38.84250858332962,-0.09880877286195755,-0.2380591481924057,-0.03127841651439667,38.8449905833113
2025-10-02 14:11:46.632270,0.3419454637169838,-0.16079616464674473,-9.802722555398942,38.96417058334919,-0.03298787109553814,0.35134986955672504,-0.1339164412021637,38.96417058334919,0.5760021972656251,0.12843292236328124,-9.59774139404297,38.9616885833093,0.0033113760873675346,0.3176380395889282,-0.015996990725398064,38.96417058334919
2025-10-02 14:11:46.755605,0.32506553884595635,-0.13720640449784696,-9.803653432130814,39.1230755833094,0.6938655464351178,0.13915236700326206,2.856899281740189,39.1230755833094,0.8743318176269532,0.168848876953125,-7.207811279296875,39.12059358332772,0.05410292372107506,0.07050131261348724,-0.043212275952100754,39.1230755833094
2025-10-02 14:11:46.886843,0.3161982363089919,-0.10419434054754675,-9.804346327185632,39.25218658329686,0.39407467033714055,0.23831546170637014,2.9816870498657226,39.25218658329686,-0.13546829223632814,0.10747650146484375,-7.333699493408203,39.24970458331518,-0.016428150236606598,0.20962737500667572,-0.03460421785712242,39.25218658329686
2025-10-02 14:11:47.029549,0.31942889604717495,-0.09654893249273301,-9.804321768879891,39.401161583315115,0.7770408734679223,0.2911442876793444,-1.9463913255929948,39.401161583315115,0.6854246520996095,0.24983047485351564,-13.707445220947266,39.39867958333343,0.0383264422416687,0.022858286276459694,-0.015856631100177765,39.401161583315115
2025-10-02 14:11:47.163061,0.278504379875958,-0.10904906443320216,-9.805440341234208,39.530272583302576,-0.18524827033281327,0.21892057629302145,-0.49314481258392334,39.530272583302576,-1.2989987182617189,0.12289443969726563,-11.57512939453125,39.52779058332089,-0.026930680498480797,-0.06664716452360153,-0.021643320098519325,39.530272583302576
2025-10-02 14:11:47.423230,0.36105405483394865,-0.10285302582196892,-9.802816695570947,39.78849454165902,-0.4760148461535573,0.13907765968702734,2.791992849111557,39.78849454165902,0.5128335571289063,0.296982421875,-13.704002380371094,39.78601254167734,0.08971666544675827,-0.3538404405117035,-0.010403452441096306,39.78849454165902
2025-10-02 14:11:47.559557,0.35514226399362087,-0.11649446116760374,-9.802879845499993,39.92753654165426,-0.9016557101905346,0.2763619966059923,2.228030068874359,39.92753654165426,-0.7348219299316406,0.13427078247070312,-8.013585662841797,39.92505454167258,-0.03587144613265991,0.11118168383836746,-0.03394472971558571,39.92753654165426
2025-10-02 14:11:47.704226,0.38956376273185017,-0.18101791944354773,-9.800588906407357,40.0765105416649,-2.970646337270737,0.38444492742419245,3.805407707691193,40.0765105416649,-1.2880714416503907,0.08128097534179687,-7.766449584960938,40.07402854168322,0.07535822689533234,-0.0022489302791655064,-0.049001000821590424,40.0765105416649
2025-10-02 14:11:47.918114,0.36875315677374604,-0.1853856616280973,-9.801311622262002,40.22548454167554,0.4398652393743396,0.33043405026197437,-0.18277402102947235,40.22548454167554,1.156644744873047,0.13112731933593752,-11.931089172363281,40.22300254163565,0.14287257194519043,0.13735048472881317,-0.014573326334357262,40.22548454167554
2025-10-02 14:11:48.050423,0.42298136763274674,-0.1460955975484103,-9.799784329533578,40.424117541639134,-0.6446704360842705,0.2649484874680638,4.937748500704766,40.424117541639134,1.6121475219726564,0.23441253662109376,-13.477822723388673,40.42163554165745,-0.05713358893990517,-0.4511276185512543,-0.009745486080646515,40.424117541639134
2025-10-02 14:11:48.203680,0.38552198454737663,-0.12911923016421498,-9.801573577523232,40.53336454165401,-0.5564664670452476,0.3729621287807822,-3.206827071905136,40.53336454165401,0.6427633666992187,0.17453704833984376,-7.885751495361329,40.53088254167233,-0.23154853284358978,0.19671235978603363,-0.01215299777686596,40.53336454165401
2025-10-02 14:11:48.323799,0.36450047682970765,-0.09723418048582971,-9.80274126648903,40.692270166648086,0.8797121331095696,0.18959214856848122,-1.7885515862703325,40.692270166648086,-0.5201683044433594,0.16121475219726564,-9.357041931152343,40.6897881666664,-0.09146661311388016,0.17923888564109802,-0.005038237199187279,40.692270166648086
2025-10-02 14:11:48.447058,0.35463220406323676,-0.08966332443058492,-9.803175714612008,40.81145016668597,-0.18024491753429175,0.2565662480145693,1.7746235185861587,40.81145016668597,0.15971786499023438,0.10089019775390626,-8.0807958984375,40.80896816664608,-0.04985419288277626,0.16233138740062714,-0.009561323560774326,40.81145016668597
2025-10-02 14:11:48.642369,0.3502254865318537,-0.07441303226631135,-9.803467490673066,40.94056116667343,-0.24454514008015396,0.245956274215132,-0.02165457844734192,40.94056116667343,0.6182144165039063,0.4017645263671875,-14.100677490234375,40.93807916663354,0.03151123225688934,-0.14376944303512573,-0.043975163251161575,40.94056116667343
2025-10-02 14:11:48.769713,0.29777883091941476,-0.07936713597737254,-9.805158505439758,41.12926116667222,0.08632242640480399,0.16349220614880325,0.4099459505081177,41.12926116667222,0.8175997924804688,0.2796185302734375,-7.587421875,41.12677916663233,-0.03886430338025093,-0.0005725095979869366,-0.017696309834718704,41.12926116667222
2025-10-02 14:11:48.890688,0.2878183914162219,-0.053361370274797086,-9.80563212990761,41.25837216665968,-0.5163930496573449,0.27864288579672575,3.3896741831302646,41.25837216665968,-0.42242156982421875,0.08711883544921875,-6.659202117919922,41.255890166678,-0.3284323811531067,0.06248227879405022,-0.03441902622580528,41.25837216665968
2025-10-02 14:11:49.060878,0.2660359964892268,0.006384736368781887,-9.806389344334603,41.42721016664291,-1.6994552224874497,0.35990357860922817,0.24038254380226137,41.42721016664291,-0.9922865295410157,0.36015106201171876,-13.631702728271485,41.424728166661225,0.11083872616291046,-0.5931594967842102,0.02799241989850998,41.42721016664291
2025-10-02 14:11:49.196726,0.30213188197463753,-0.021427715616300705,-9.805323396921159,41.56625216663815,1.3082193388044834,0.3203560817241669,-1.2214962136745453,41.56625216663815,0.04266128540039063,0.4577481079101563,-7.617209930419922,41.56377016665647,0.004699145909398794,0.21061792969703674,-0.027549296617507935,41.56625216663815
2025-10-02 14:11:49.324705,0.31402402225881815,-0.1003263251669705,-9.804458593726158,41.69536308333045,-1.0376194077730179,0.31183650579303507,1.3536333471536637,41.69536308333045,1.071771240234375,0.087418212890625,-3.0084439086914063,41.692881083348766,-0.04387805983424187,-0.30927056074142456,-0.022126130759716034,41.69536308333045
2025-10-02 14:11:49.451620,0.30151335619390013,-0.17383613163605333,-9.803824170827866,41.81454208330251,0.6870309553295374,0.3441818775236607,-2.291473528146744,41.81454208330251,0.12364288330078126,0.22528152465820314,-7.691904602050782,41.81206008332083,0.06506022810935974,0.2948649525642395,-0.014844270423054695,41.81454208330251
2025-10-02 14:11:49.585668,0.3282253741845489,-0.22350535981357098,-9.801963002085687,41.95358508330537,-0.19305638629943134,0.4017845530807972,-2.105178898572922,41.95358508330537,0.6497987365722656,0.24563919067382814,-11.485166473388672,41.95110308332369,-0.016560863703489304,0.15604320168495178,-0.0005697854794561863,41.95358508330537
2025-10-02 14:11:49.718739,0.3009234817698598,-0.22908893913030626,-9.802707937359811,42.08269608335104,-0.796692488193512,2.5814471849799157,1.571474289894104,42.08269608335104,-0.7008425903320313,2.545756072998047,-8.838220825195313,42.08021408331115,-0.08271032571792603,0.26647669076919556,-0.09253402054309845,42.08269608335104
2025-10-02 14:11:49.902759,0.35510571889579295,-0.1842498217150569,-9.801841380000115,42.261465083342046,-0.0034868408739566806,0.017496550306677818,0.34420687437057496,42.261465083342046,-0.135318603515625,-0.13172607421875002,-9.80805404663086,42.258983083302155,-0.007448237854987383,0.025277353823184967,0.015406113117933273,42.261465083342046
2025-10-02 14:11:50.063460,0.3460055509954691,-0.17264509035274386,-9.80237698495388,42.420371083309874,0.2880758699029684,0.8046308874338866,-0.09549087882041932,42.420371083309874,0.47196853637695313,0.6186634826660157,-9.789193267822267,42.41788908332819,0.0032076044008135796,-0.03607518598437309,-0.00476659182459116,42.420371083309874
2025-10-02 14:11:50.175885,0.33916270069777965,-0.16687842009589077,-9.802716708183288,42.549482083297335,0.010659876130521297,0.9994470298290253,-0.006236640214920044,42.549482083297335,0.3725752258300781,0.8390052795410157,-9.841734008789063,42.54700008331565,0.0022894381545484066,-0.013105589896440506,-0.0049680788069963455,42.549482083297335
2025-10-02 14:11:50.455189,0.32948976147919895,-0.16634915571659803,-9.803052338361741,42.81763541663531,0.05071951601654291,-0.3511247152090073,0.020297439694404604,42.81763541663531,0.38664596557617187,-0.5727090454101563,-9.82676513671875,42.81515341665363,-0.0005596154369413853,-0.000177484325831756,0.0014565438032150269,42.81763541663531
2025-10-02 14:11:50.723439,0.3260190004482865,-0.16486642973497512,-9.803197349309922,43.05599441664526,0.06107610438019038,0.26860067663714293,0.012205477952957153,43.05599441664526,0.37856277465820315,0.0431103515625,-9.780960388183594,43.05351241666358,0.0003645033575594425,0.00451678317040205,-0.0011501125991344452,43.05599441664526
2025-10-02 14:11:50.904334,0.3287222047895193,-0.1650150403752923,-9.803104963302612,43.2049684166559,0.05493009600788355,0.0406236769258976,-0.023363134860992434,43.2049684166559,0.3860472106933594,-0.09086105346679688,-9.803862762451173,43.20248641667422,0.0013094842433929443,-0.006950303912162781,0.0008816239424049854,43.2049684166559
2025-10-02 14:11:51.209001,0.33139993719756605,-0.16816809659823775,-9.802957613468172,43.542643416672945,0.0459653276950121,0.6015169613063336,0.08127512812614442,43.542643416672945,0.39113662719726566,0.4697232055664063,-9.751621398925781,43.540161416633055,0.003566507715731859,-0.006592350080609322,-0.007067573722451925,43.542643416672945
2025-10-02 14:11:51.342246,0.32698203686624766,-0.17159065464511514,-9.803048830032349,43.701548916636966,0.04694046054035426,-0.11521295249462128,0.013854392766952515,43.701548916636966,0.39353164672851565,-0.2758763122558594,-9.80565902709961,43.69906691665528,-0.0012314408086240292,0.011326109990477562,-0.0014232248067855835,43.71147991664475
2025-10-02 14:11:51.524194,0.32528184927999976,-0.177665728982538,-9.802995035648346,43.890248916635755,0.0791770375147462,-0.40941341534256936,-0.05804823338985443,43.890248916635755,0.396375732421875,-0.6271957397460938,-9.843380584716797,43.88776691665407,0.0025922362692654133,2.5064568035304546e-05,0.0011487863957881927,43.890248916635755
2025-10-02 14:11:51.679211,0.3280517849698663,-0.17664725365117193,-9.80292194545269,44.04915491666179,0.0341948825865984,0.3182528017088771,-0.019951284527778626,44.04915491666179,0.3860472106933594,0.16735198974609375,-9.828411712646485,44.04667291668011,-0.0031636522617191076,0.008050531148910522,0.0015537950675934553,44.04915491666179
2025-10-02 14:11:51.820146,0.32965571276843547,-0.19664277601987123,-9.802485743165017,44.188196916657034,0.4621975466609001,1.3589758019149305,-0.3182662868499756,44.188196916657034,0.7732919311523437,1.3705499267578125,-9.75012451171875,44.18571491667535,0.057472970336675644,-0.11649934202432632,0.06768406182527542,44.188196916657034
2025-10-02 14:11:51.946614,0.42328297432512046,-0.1627709886431694,-9.799512434005738,44.317307916644495,0.1404447478428483,0.04496596544981003,0.4659716320037842,44.317307916644495,0.5809419250488281,-0.11960128784179688,-9.220525817871094,44.31482591666281,-0.04663531854748726,0.13100317120552063,-0.021834421902894974,44.317307916644495
2025-10-02 14:11:52.100083,0.4329416244104505,-0.15881660806015135,-9.799157508015632,44.426555916666985,-0.05003780376166105,0.019456390812993052,0.0879503095149994,44.426555916666985,0.3800596618652344,-0.08801696777343751,-9.830657043457032,44.4240739166853,-0.016967613250017166,0.05522286891937256,0.0029609506018459797,44.426555916666985
2025-10-02 14:11:52.223066,0.4492544059082866,-0.15651022866368294,-9.798455842137336,44.595392916642595,-0.09149850960820914,-0.03524096773937345,-0.23817054212093355,44.595392916642595,0.49576904296875,-0.16510665893554688,-10.254126434326173,44.59291091666091,-0.01150716096162796,0.038870275020599365,0.017429154366254807,44.595392916642595
2025-10-02 14:11:52.356579,0.4540867276489735,-0.15919974686577917,-9.798192717432975,44.7245040833368,0.05365744952112437,0.1355489107221365,0.02905715346336365,44.7245040833368,0.48409332275390626,-0.026195526123046875,-9.823322296142578,44.722022083296906,0.0006651710718870163,0.008420915342867374,-0.0005971230566501617,44.7245040833368
2025-10-02 14:11:52.479835,0.4532287583872676,-0.1623345853574574,-9.79817985355854,44.85361508332426,0.07607052147388459,0.008753976188600065,0.04236775517463684,44.85361508332426,0.5140310668945313,-0.1573228454589844,-9.78455291748047,44.851133083342575,0.0021954216063022614,-0.0037950363475829363,-4.871934652328491e-05,44.85361508332426
2025-10-02 14:11:52.627680,0.4535993987694383,-0.16206740414723755,-9.798170498013496,44.992658083327115,0.05055232219398022,0.1539841949567199,0.017506563663482667,44.992658083327115,0.49951126098632814,-0.0005987548828125,-9.795031127929688,44.99017608334543,-0.00029401108622550964,0.0006431922083720565,-0.00130449328571558,44.992658083327115
2025-10-02 14:11:52.783331,0.45339931435883046,-0.16036118661984802,-9.798207335472107,45.15156408335315,0.04476485777646303,0.21230313615873458,0.0036229348182678224,45.15156408335315,0.49831375122070315,0.054187316894531254,-9.790241088867187,45.14908208331326,-0.0001062578521668911,0.0005033762427046895,0.002043898915871978,45.15156408335315
2025-10-02 14:11:52.934844,0.45562699388712646,-0.15488205319270493,-9.798188039660454,45.30053808330558,0.0480754416435957,0.146798898819834,0.004206486940383911,45.30053808330558,0.4999603271484375,-0.010627899169921875,-9.790390777587891,45.2980560833239,0.0013622096739709377,-0.00029382528737187386,-0.0013123787939548492,45.30053808330558
2025-10-02 14:11:53.066689,0.456598435677588,-0.15329544777050616,-9.798169328570367,45.439580083300825,0.04336185492575169,0.12440554294735194,0.002539445757865906,45.439580083300825,0.499361572265625,-0.0305364990234375,-9.795779571533204,45.43709808331914,-0.0015905252657830715,-0.0008821567753329873,-0.0008204588666558266,45.439580083300825
2025-10-02 14:11:53.185929,0.4575709007307887,-0.1496209386829287,-9.798179268836975,45.55876008333871,0.04059308867901564,0.1545606938749552,0.0035989612340927126,45.55876008333871,0.49591873168945316,0.00449066162109375,-9.785900115966797,45.55627808329882,-0.0011861701495945454,-0.0006107729277573526,0.0012547005899250507,45.55876008333871
2025-10-02 14:11:53.367831,0.45893984355032447,-0.1426830894034356,-9.798218445181847,45.72759720834438,0.037877020463347434,0.13040863257832827,0.004536269903182984,45.72759720834438,0.4944218444824219,-0.0077838134765625,-9.797276458740235,45.72511520830449,-0.0037554940208792686,7.781729800626636e-05,0.00043550925329327583,45.72759720834438
2025-10-02 14:11:53.496820,0.46122566632926465,-0.13833569370210172,-9.798176929950715,45.866640208347235,0.04262660410255194,0.1308512302581221,0.012275644540786744,45.866640208347235,0.5034031677246094,-0.006436614990234376,-9.792037353515626,45.864158208307344,0.0008736047893762589,0.0014324114890769124,0.0001404578797519207,45.866640208347235
2025-10-02 14:11:53.626182,0.4626638986542821,-0.13440443702973426,-9.798159973025323,45.9858192083193,0.04702612224966288,0.1305125577002764,-0.00031165659427642825,45.9858192083193,0.5056484985351563,-0.0089813232421875,-9.79278579711914,45.983337208337616,0.0002633882686495781,0.0010265385499224067,-2.3616943508386612e-05,45.9858192083193
2025-10-02 14:11:53.779305,0.4640021435916424,-0.1295363650470972,-9.798162311911584,46.144725208345335,0.03236558116972447,0.12564448571763934,0.00957013785839081,46.144725208345335,0.4932243347167969,-0.000449066162109375,-9.785900115966797,46.142243208305445,-0.002288189949467778,0.0027806987054646015,-0.0011667939834296703,46.144725208345335
2025-10-02 14:11:53.924759,0.46540306337177756,-0.12515700152143835,-9.798153541088105,46.29369920829777,0.030814972668886186,0.11976822584867478,-0.002265211343765259,46.29369920829777,0.50055908203125,-0.00269439697265625,-9.800270233154297,46.291217208316084,-0.0021579533349722624,0.0005547197069972754,-0.0010778717696666718,46.29369920829777
2025-10-02 14:11:54.047148,0.4666828361526132,-0.12128377846442163,-9.79814418554306,46.41287820832804,0.03836698058992624,0.12023593914695084,0.01269196629524231,46.41287820832804,0.5035528564453126,-0.0005987548828125,-9.789193267822267,46.410396208346356,-0.003820533864200115,-0.0005226721987128258,0.0006087289657443762,46.41287820832804
2025-10-02 14:11:54.239772,0.4679103128984571,-0.11728147812187673,-9.798133660554887,46.591647208319046,0.03339728582650423,0.11353924183174968,0.006394515037536621,46.591647208319046,0.49906219482421876,-0.004041595458984375,-9.787397003173828,46.58916520833736,-0.0003861924633383751,0.0005392974708229303,0.0007877559401094913,46.591647208319046
2025-10-02 14:11:54.391264,0.4690494966879487,-0.11265429315157235,-9.798131321668626,46.75055354164215,0.027767294235527516,0.10546924369409681,0.010735487937927246,46.75055354164215,0.501606903076172,-0.00808319091796875,-9.792935485839845,46.748071541660465,0.0009658406488597393,-0.0010897866450250149,-4.777219146490097e-05,46.75055354164215
2025-10-02 14:11:54.516049,0.47020578358322385,-0.10933809047564864,-9.798113195300102,46.88959554163739,0.024365713074803355,0.10574557031504811,0.009969502687454224,46.88959554163739,0.4926255798339844,-0.0047900390625,-9.794282684326172,46.88711354165571,-0.0019047532696276903,2.5850720703601837e-05,-0.0004028654657304287,46.88959554163739
2025-10-02 14:11:54.644989,0.47152180910110475,-0.10707809594459833,-9.798075188398363,47.00877554167528,0.02035525403916836,0.0970489607937634,0.004392428398132324,47.00877554167528,0.5035528564453126,-0.006735992431640626,-9.797725524902344,47.00629354163539,0.0007168268784880638,-0.0007798152510076761,0.0005719203036278486,47.00877554167528
2025-10-02 14:11:54.849198,0.47287430662661795,-0.10270894677378238,-9.798056477308274,47.207407541631255,0.025289682783186437,0.09642203877680004,0.004523990750312805,47.207407541631255,0.5011578369140626,-0.0089813232421875,-9.79173797607422,47.20492554164957,0.0018131770193576813,-6.786815356463194e-05,-0.0029136301018297672,47.207407541631255
2025-10-02 14:11:54.966924,0.4733588580787182,-0.10029065715149045,-9.79806173980236,47.336518541676924,0.02001523844897747,0.09535092023201287,0.00916609525680542,47.336518541676924,0.49247589111328127,-0.004640350341796875,-9.792636108398439,47.33403654163703,-0.0013998011127114296,0.001986396498978138,-0.0012862225994467735,47.336518541676924
2025-10-02 14:11:55.159675,0.47349009152501825,-0.09655091506429017,-9.798092145323753,47.52521854167571,0.024224977903068066,0.08966522477567196,0.0033598101139068605,47.52521854167571,0.49412246704101564,-0.00868194580078125,-9.791438598632814,47.52273654163582,0.00025047920644283295,-0.0009371648193337023,0.000403757207095623,47.52521854167571
2025-10-02 14:11:55.277848,0.47420648507773877,-0.0940327202808112,-9.798077527284622,47.64439854165539,0.024855600111186506,0.08385390554554761,-0.00039293289184570316,47.64439854165539,0.5040019226074219,-0.00808319091796875,-9.801168365478516,47.64191654167371,0.00017581554129719734,-0.0006045403424650431,-0.00042997393757104874,47.64439854165539
2025-10-02 14:11:55.415576,0.4745136100798846,-0.09156457400880755,-9.798086882829667,47.78344020829536,0.02754224952310324,0.08692425107583404,0.006650623083114624,47.78344020829536,0.5001100158691406,-0.01047821044921875,-9.796827392578125,47.78095820831368,-0.0015398869290947914,0.00019189110025763512,-0.001879650168120861,47.78344020829536
2025-10-02 14:11:55.547630,0.47542033050209287,-0.08880495317280293,-9.798072264790536,47.91255120834103,0.013612793125212193,0.08147019672207535,0.00977537512779236,47.91255120834103,0.4912783813476563,-0.004340972900390625,-9.79278579711914,47.91006920830114,0.003496458288282156,0.001663416507653892,0.0004991490859538317,47.91255120834103
2025-10-02 14:11:55.719015,0.4763425460457802,-0.08569161233492197,-9.798052384257318,48.091320208332036,0.02855739925056696,0.0816500351484865,0.004070246815681458,48.091320208332036,0.5054988098144532,-0.007634124755859375,-9.797276458740235,48.08883820835035,0.0011901408433914185,-0.0007792202522978187,-0.00015820004045963287,48.091320208332036
2025-10-02 14:11:55.850910,0.4767912467569113,-0.08431383473798633,-9.798041859269143,48.220431208319496,0.021073328666388988,0.08102070115506649,0.007952213287353516,48.220431208319496,0.49531997680664064,-0.00987945556640625,-9.78694793701172,48.217949208337814,0.0011603408493101597,-2.378376666456461e-05,0.0017261062748730183,48.220431208319496
2025-10-02 14:11:55.996268,0.47656897947192195,-0.08236232651397586,-9.79807051062584,48.33961020834977,0.022343490086495877,0.07652447554282844,0.00303996741771698,48.33961020834977,0.4939727783203125,-0.00928070068359375,-9.789642333984375,48.33712820830988,-0.0016192062757909298,0.0012255527544766665,0.00216492242179811,48.33961020834977
2025-10-02 14:11:56.124877,0.358473349660635,-0.13587510312907397,-9.802505038976669,48.488585208309814,-0.667430869191885,5.519280409812928,0.14863212883472443,48.488585208309814,-1.1466156005859376,5.633235626220704,-10.496622161865234,48.48610320832813,-0.01378222368657589,0.13585804402828217,-0.03320346772670746,48.488585208309814
2025-10-02 14:11:56.343957,0.32894611660391093,-0.06964501619338989,-9.80423698425293,48.71701216668589,-0.38822285000234846,0.8315606045722962,13.159957555532456,48.71701216668589,1.5230827331542969,-0.5828878784179687,-10.310259704589845,48.714530166646,0.21513555943965912,-0.008040600456297398,0.11950787156820297,48.71701216668589
2025-10-02 14:11:56.511616,0.2570712829940021,-0.01722187620936893,-9.806616801023484,48.86598616663832,0.51906475212425,0.08892277456820012,1.331391123533249,48.86598616663832,-0.36718643188476563,-0.1728904724121094,-9.309590606689454,48.86350416665664,-0.23006898164749146,0.3110122084617615,0.01570126786828041,48.86598616663832
2025-10-02 14:11:56.649929,0.2575437380187214,-0.06550437438301743,-9.806402208209038,49.01496016664896,-0.2124873965419829,-0.08792657347396017,3.9302200341224673,49.01496016664896,0.7438032531738281,-0.13037887573242188,-16.71828414916992,49.01247816666728,0.21379074454307556,-0.23742078244686127,-0.011141056194901466,49.01496016664896
2025-10-02 14:11:56.809696,0.29037492200732234,-0.08829260917380452,-9.805305270552635,49.1639341666596,-0.22675716089084746,-0.04208627569489181,3.3703362715244296,49.1639341666596,-0.06451583862304688,-0.13127700805664064,-4.307742004394531,49.16145216667792,-0.08542089909315109,0.1668497771024704,-0.01359253004193306,49.1639341666596
2025-10-02 14:11:56.961175,0.24711151957511904,-0.08627878242172302,-9.806510381698608,49.33277116663521,-0.10625437857583166,0.15603371713310482,1.489054276943207,49.33277116663521,0.5316943359375,-0.05059478759765625,-8.454718322753907,49.33028916665353,-0.016994968056678772,-0.008638127706944942,0.0677773654460907,49.33277116663521
2025-10-02 14:11:57.318576,0.2872446333803237,-0.12291243815794588,-9.805022850036622,49.690308791643474,0.4640430375561118,0.05480407937429846,0.575366604924202,49.690308791643474,0.18621276855468752,-0.04924758911132813,-8.441845092773438,49.68782679166179,-0.11470404267311096,0.05486709624528885,0.017754461616277695,49.690308791643474
2025-10-02 14:11:57.470188,0.30159916408360005,-0.05765583040192723,-9.805192419290544,49.82935179164633,-0.25759071674197914,-0.09667323150672019,3.216644546985626,49.82935179164633,1.3593232727050781,0.001945953369140625,-8.497828674316407,49.82686979166465,0.06565508246421814,-0.552533745765686,0.015181951224803925,49.82935179164633
2025-10-02 14:11:57.594140,0.3008444529958069,-0.0399554909253493,-9.805305270552635,49.95846279163379,3.064606999754906,0.1484798088669777,-6.889927400350571,49.95846279163379,3.37458251953125,0.06735992431640625,-15.44353500366211,49.95598079165211,0.020953835919499397,-0.04549301415681839,0.01003035344183445,49.95846279163379
2025-10-02 14:11:57.735074,0.2411823515407741,-0.10206581700593234,-9.80650278031826,50.097504791629035,-0.08805080853402615,0.02871835299767554,0.6148680549860001,50.097504791629035,1.090931396484375,-0.18396743774414062,-6.5345114135742195,50.09502279164735,-0.01484065130352974,0.15737201273441315,0.06885826587677002,50.097504791629035
2025-10-02 14:11:57.881144,0.21451532056555153,-0.12173801575787366,-9.806896297931672,50.246478791639674,0.6698456230759621,0.05048622124828398,0.3498646402359009,50.246478791639674,1.0618917846679687,-0.012723541259765625,-10.339449005126953,50.24399679165799,-0.12278931587934494,0.048586953431367874,0.03736723214387894,50.246478791639674
2025-10-02 14:11:58.026366,0.24259335776790977,-0.10444309389218688,-9.806443138718606,50.38552179164253,-0.40096404254436496,0.011187030030414463,0.11574563384056091,50.38552179164253,0.37901184082031253,-0.06721023559570313,-8.518036651611329,50.38303979166085,-0.2009601891040802,0.24275800585746765,0.05483831837773323,50.38552179164253
2025-10-02 14:11:58.156480,0.22373533811420204,-0.10305092666298152,-9.806909746527673,50.51463279162999,0.3616972851008177,-0.11923685098998249,-0.7178568184375763,50.51463279162999,1.0755134582519532,-0.2836601257324219,-9.44161605834961,50.51215079164831,-0.07337319850921631,0.32053110003471375,0.03268055245280266,50.51463279162999
2025-10-02 14:11:58.343988,0.22882994402199985,-0.10153720130212605,-9.806802742481231,50.69340208329959,0.5636221068352462,-0.0029454983398318293,2.3157827425003052,50.69340208329959,0.6240522766113281,-0.00928070068359375,-15.072756042480469,50.690920083317906,-0.23495881259441376,-0.4620659351348877,0.0613265298306942,50.69340208329959
2025-10-02 14:11:58.514564,0.25236195378005505,-0.1457367520965636,-9.80567247569561,50.8721710833488,-0.0767770478501916,0.1213374723494053,1.130460913181305,50.8721710833488,-0.49531997680664064,-0.10133926391601562,-9.543404388427735,50.86968908330891,-0.08197681605815887,0.4110568165779114,0.03253835439682007,50.8721710833488
2025-10-02 14:11:58.764920,0.24611250450834632,-0.19303049409762027,-9.805011740326881,51.13039208331611,0.43811461955308917,0.08031490568071604,-0.63592504799366,51.13039208331611,0.8764274597167969,-0.3864962768554688,-7.263046417236328,51.12791008333443,-0.02454272285103798,0.09148547053337097,0.03847363218665123,51.13039208331611
2025-10-02 14:11:58.890119,0.2406093426793814,-0.1830355560220778,-9.80533918440342,51.25950308330357,0.2526149189472199,-0.17606764839962125,-1.8937307167053223,51.25950308330357,-0.03697311401367188,-0.2805166625976563,-8.853189697265625,51.25702108332189,-0.014767412096261978,-0.3245123028755188,0.018582783639431,51.25950308330357
2025-10-02 14:11:59.028002,0.3063407626189292,-0.14613043416291477,-9.8041264718771,51.39854608330643,-1.1977370761334896,0.16873343098908664,3.104808361530304,51.39854608330643,0.99393310546875,-0.02484832763671875,-10.523117065429688,51.396064083324745,0.12836559116840363,0.030122514814138412,0.07471286505460739,51.39854608330643
2025-10-02 14:11:59.205896,0.2382443084008992,-0.0803340918570757,-9.806779938340188,51.567383083340246,0.3940409026667476,-0.0512423119135201,-4.203637007474899,51.567383083340246,1.1467652893066407,-0.16001724243164064,-3.2407608032226562,51.564901083300356,-0.012670347467064857,-0.49354904890060425,-0.009619281627237797,51.567383083340246
2025-10-02 14:11:59.353434,0.2905982673726976,-0.057730492036789656,-9.805523956418037,51.71635683334898,0.0018934746086597444,-0.17398764761164787,4.906961740851402,51.71635683334898,0.8915460205078125,0.029788055419921876,-8.1286962890625,51.71387483330909,0.0012522991746664047,-0.1838470995426178,0.005349861923605204,51.71635683334898
2025-10-02 14:11:59.476865,0.27518772952258586,-0.06459447453729808,-9.805925075411798,51.84546783333644,-0.6952143529057503,-0.07027504911180586,-0.38832411646842957,51.84546783333644,0.20836669921875,-0.13172607421875002,-9.216633911132813,51.84298583329655,0.01745905540883541,-0.038777343928813934,0.04129088670015335,51.84546783333644
2025-10-02 14:11:59.667699,0.2901117973029614,-0.050117042670026424,-9.805580089688302,52.00437383330427,-0.6556516532599926,-0.005118090701289475,1.2622472137212755,52.00437383330427,0.20971389770507814,0.000149688720703125,-9.595346374511719,52.00189183332259,-0.06645875424146652,-0.13967221975326538,0.04891100525856018,52.00437383330427
2025-10-02 14:11:59.805838,0.2773714452981949,0.012290397339966149,-9.80607359468937,52.16327983333031,0.04939910508692265,-0.17111012315377594,0.31730266571044924,52.16327983333031,0.5635780334472656,-0.1622625732421875,-8.872200164794922,52.160797833348624,-0.18406492471694946,0.04955830052495003,0.01516002044081688,52.16327983333031
2025-10-02 14:11:59.964030,0.2838010253570974,0.0739690687134862,-9.805614003539086,52.30232183332555,0.0354849610850215,-0.04388164955656976,-1.7907700198888779,52.30232183332555,0.33260833740234375,-0.0652642822265625,-9.703271942138672,52.29983983334387,0.14353150129318237,0.19658739864826202,0.03671674430370331,52.30232183332555
2025-10-02 14:12:00.080779,0.26520159881561994,0.09171172284521163,-9.805984717011452,52.45129583333619,-0.22987509727478028,-0.14530029399320485,2.374988724589348,52.45129583333619,-0.17483642578125,-0.021405487060546877,-9.21887924194336,52.4488138332963,-0.12222028523683548,0.2961618900299072,0.01260501891374588,52.45129583333619
2025-10-02 14:12:00.296022,0.23763857340440156,0.11009818282909692,-9.806504534482956,52.66979183332296,4.521415051817894,-6.790855686664582,3.2775304341316223,52.66979183332296,3.0003607177734377,-11.491154022216797,-11.466605072021485,52.66730983334128,0.06842352449893951,0.11479039490222931,0.06523779034614563,52.66979183332296
2025-10-02 14:12:00.440461,0.24414018385112288,0.09605397482402624,-9.806491085886956,52.808833833318204,0.20148311940953137,-3.7237601119279864,0.043343655467033386,52.808833833318204,0.39053787231445314,-2.9261151123046876,-9.709708557128907,52.80635183333652,-0.0023688008077442646,-0.0043636285699903965,0.004265689291059971,52.808833833318204
2025-10-02 14:12:00.639416,0.252485768571496,0.09556865592487157,-9.806284679174423,53.00746583333239,0.07009342454373838,0.5015396600961686,-0.023474231958389283,53.00746583333239,0.3339555358886719,0.6713539123535157,-9.811646575927735,53.00498383335071,0.000672441441565752,0.0061772726476192474,-0.0026626521721482277,53.00746583333239
2025-10-02 14:12:00.881078,0.25343937635421754,0.0959731553401798,-9.806256612539292,53.25575683329953,0.06779256345704199,-0.31317149821668866,-0.059577280282974245,53.25575683329953,0.3170407104492188,-0.25267456054687504,-9.840536499023438,53.253274833317846,0.0018277200870215893,0.002915018005296588,0.0021900562569499016,53.25575683329953
2025-10-02 14:12:01.001587,0.2519422150589526,0.0955928579159081,-9.806296958327295,53.365003833314404,0.07692384950816632,-0.44511603903025393,-0.03977626919746399,53.365003833314404,0.33066238403320314,-0.3683839416503906,-9.814191284179689,53.36252183333272,-0.0016844586934894323,-0.003573006484657526,0.0006308336742222309,53.365003833314404
2025-10-02 14:12:01.148441,0.2547889137268067,0.0959834976028651,-9.806220944523812,53.51397883333266,0.07781938713043929,0.39349860996007924,-0.02548333525657654,53.51397883333266,0.3239263916015625,0.49636779785156254,-9.834998016357423,53.511496833350975,-0.00039185862988233566,-0.00022232683841139078,-0.0021760952658951283,53.51397883333266
2025-10-02 14:12:01.289039,0.2529173661768437,0.10126728834584356,-9.806214512586594,53.6530208333279,0.16651035614311696,-0.8275570160150528,0.6294001400470733,53.6530208333279,0.5789959716796875,-0.8822653198242187,-9.218130798339844,53.65053883334622,-0.0023057812359184027,0.00011558143887668848,-0.002045590430498123,53.6530208333279
2025-10-02 14:12:01.440114,0.2559420760162175,0.10156281941570341,-9.806134990453721,53.801995541667566,0.1007661271467805,-0.03076005452312529,-0.013594776391983032,53.801995541667566,0.2947370910644531,0.08891510009765625,-9.844578094482422,53.79951354168588,0.000428665429353714,-0.0005139980930835009,-0.0010882080532610416,53.801995541667566
2025-10-02 14:12:01.579768,0.2545239434950054,0.10182474726811051,-9.806167150139808,53.94103854167042,0.4874830267578364,0.1447125665936619,0.24300560474395752,53.94103854167042,0.2429447937011719,0.21959335327148438,-9.833351440429688,53.93855654163053,0.0006892108358442783,0.0022791645023971796,0.005370455794036388,53.94103854167042
2025-10-02 14:12:01.741854,0.25482757844030857,0.10229937672615051,-9.806156625151635,54.10987554164603,0.06670377535745502,-0.09825778126716614,0.019357792139053347,54.10987554164603,0.3435356140136719,0.03143463134765625,-9.78410385131836,54.10739354166435,-0.0015616938471794128,0.00042983441380783916,-0.0006373110227286816,54.10987554164603
2025-10-02 14:12:01.911044,0.25599687539041044,0.1032370234373957,-9.806114525198938,54.27871354162926,0.05715192832052708,0.1353667882271111,0.020365267395973205,54.27871354162926,0.329315185546875,0.24608825683593752,-9.818681945800781,54.276231541647576,0.0019902545027434826,0.0013597628567367792,-0.0016980371437966824,54.27871354162926
2025-10-02 14:12:02.031389,0.2563500472158194,0.10383103659376502,-9.806100491881372,54.39789254165953,0.06308568276464939,0.04930052468553186,0.037864229679107665,54.39789254165953,0.34368530273437503,0.13636642456054687,-9.781110076904298,54.39541054167785,0.0012844293378293514,-0.0005397606873884797,0.00102278683334589,54.39789254165953
2025-10-02 14:12:02.150338,0.25632196230813864,0.1044173752795905,-9.80609698355198,54.517071541631594,0.05697656666859985,-0.020142598114907744,0.015255385637283327,54.517071541631594,0.3276686096191406,0.07439529418945313,-9.796677703857423,54.51458954164991,-0.0016854433342814445,0.0019123065285384655,-0.0018427958711981773,54.517071541631594
2025-10-02 14:12:02.276360,0.2559689732082188,0.10382506147027017,-9.806111016869545,54.636250541661866,0.06481399180367589,-0.08062330062501133,0.01811467409133911,54.636250541661866,0.33724868774414063,0.017513580322265625,-9.793983306884765,54.63376854168018,0.002066505141556263,-0.003357549197971821,-0.0008454178459942341,54.636250541661866
2025-10-02 14:12:02.410588,0.2564769500680268,0.1017216078657657,-9.806119787693024,54.78522479167441,0.06759913025423885,0.014586528120562435,0.007196753025054932,54.78522479167441,0.32826736450195315,0.11645782470703125,-9.81239501953125,54.78274279163452,0.0011225966736674309,0.0006409756606444716,-5.598645657300949e-06,54.78522479167441
2025-10-02 14:12:02.529716,0.2576490244455636,0.1013533520512283,-9.806092890501024,54.89447179163108,0.0754083973914385,0.06345392944291234,0.0056729686260223395,54.89447179163108,0.32811767578125,0.1776805114746094,-9.786349182128907,54.891989791649394,0.0002707359381020069,0.0028783916495740414,-0.0012589027173817158,54.89447179163108
2025-10-02 14:12:02.679355,0.25861812734976414,0.10245253723114729,-9.806057222485542,55.023582791676745,0.07159520879387855,0.12612214841879904,0.008629320859909058,55.023582791676745,0.33185989379882813,0.2137554931640625,-9.81284408569336,55.021100791636854,-0.0006579970940947533,-0.0020742109045386314,0.0016598519869148731,55.023582791676745
2025-10-02 14:12:02.827159,0.2583019026182592,0.10266540328972042,-9.806063654422761,55.19242079165997,0.06592393951490522,-0.0628481761738658,0.008335790634155274,55.19242079165997,0.32647109985351563,0.039966888427734375,-9.80565902709961,55.18993879167829,-0.0034692278131842613,-0.0007810656679794192,3.9896927773952484e-05,55.19242079165997
2025-10-02 14:12:03.020402,0.26055216701701284,0.10024772579781711,-9.80602564752102,55.35132579167839,0.062326348721981055,-0.012979229036718607,0.0135403972864151,55.35132579167839,0.3239263916015625,0.08756790161132813,-9.78560073852539,55.3488437916385,0.00024268776178359985,0.0010777050629258156,-0.0011929655447602272,55.35132579167839
2025-10-02 14:12:03.141027,0.2627420954592526,0.10028452671132983,-9.805965421199799,55.51023179164622,0.06836928164586425,0.008838523272424936,-0.0038819664716720583,55.51023179164622,0.32706985473632816,0.11256591796875001,-9.8052099609375,55.50774979166454,0.00011376524344086647,0.0021487646736204624,-0.00167034100741148,55.51023179164622
2025-10-02 14:12:03.259284,0.26498815717175606,0.09994026275351645,-9.805911626815796,55.629411791684106,0.06193200884386897,-0.008630143124610187,0.009084234237670899,55.629411791684106,0.32527359008789064,0.09310638427734376,-9.797426147460937,55.626929791644216,0.0007143146358430386,0.0018410008633509278,0.0017427594866603613,55.629411791684106
2025-10-02 14:12:03.401011,0.26677828224375844,0.10049908298067749,-9.805854908823967,55.768454416655004,0.05714803626760841,-0.007991480994969607,0.0012460416555404663,55.768454416655004,0.32647109985351563,0.09595046997070313,-9.80281494140625,55.76597241667332,0.0020648711360991,-0.0016937199980020523,-0.0014115730300545692,55.768454416655004
2025-10-02 14:12:03.526663,0.26854247856885194,0.1004671608377248,-9.805809885263443,55.887633416685276,0.05388702582567931,-0.003169492380693555,0.009581247568130493,55.887633416685276,0.3291654968261719,0.09445358276367188,-9.80281494140625,55.885151416645385,-0.001118506770581007,-0.0002809115394484252,-0.001260543242096901,55.887633416685276
2025-10-02 14:12:03.649561,0.2708244092948735,0.1000768409203738,-9.80575258255005,56.016744416672736,0.05953865211457014,-0.006671051792800427,0.008324096202850342,56.016744416672736,0.32841705322265624,0.09041198730468751,-9.796528015136719,56.014262416632846,-0.0015098517760634422,-0.002872402546927333,0.002216026419773698,56.016744416672736
2025-10-02 14:12:03.827258,0.2734204451367259,0.10008918402716518,-9.805680077075959,56.195513416663744,0.05320039825513959,-0.0051865168288350106,0.0006186354160308839,56.195513416663744,0.32602203369140625,0.10059082031250001,-9.801767120361328,56.19303141668206,-0.00030656764283776283,-0.0010566582204774022,-0.0033944821916520596,56.195513416663744
2025-10-02 14:12:04.021756,0.2753736892528832,0.0996328545268625,-9.805628621578217,56.38421441667015,0.054989317338913685,-0.00757428215816617,0.004460256099700928,56.38421441667015,0.33006362915039067,0.09205856323242188,-9.793534240722657,56.38173241663026,-0.001226330641657114,-0.001038949005305767,-7.106782868504524e-05,56.38421441667015
2025-10-02 14:12:04.162872,0.2770280127413571,0.09982632427476347,-9.805578335523606,56.53318841668079,0.05258647715672851,-0.010462176287546754,0.005160167813301086,56.53318841668079,0.32841705322265624,0.08846603393554688,-9.796827392578125,56.530706416640896,0.001343531534075737,-0.0017009017756208777,-0.0023058541119098663,56.53318841668079
2025-10-02 14:12:04.315737,0.27870249085128307,0.10043072537519038,-9.805524541139603,56.67223066667793,0.05136110175400973,-0.0029833864700049163,0.006154194474220276,56.67223066667793,0.33141082763671875,0.09505233764648438,-9.803862762451173,56.66974866663804,-0.001316593959927559,-0.002634721342474222,0.0017495208885520697,56.67223066667793
2025-10-02 14:12:04.496914,0.28097267232835293,0.10008269727230072,-9.805467823147774,56.87086266663391,0.04504945272579789,-0.007575031332671642,0.0062424874305725105,56.87086266663391,0.32781829833984377,0.096998291015625,-9.80281494140625,56.86838066665223,-0.001055536326020956,0.000645827385596931,1.684296876192093e-05,56.87086266663391
2025-10-02 14:12:04.624283,0.2817092570476234,0.09959493898786605,-9.805451450943947,56.9801106666564,0.04197177076712251,0.0004265178367495537,0.01370821237564087,56.99004166666418,0.3315605163574219,0.09445358276367188,-9.810898132324219,56.9875596666825,-0.0011287247762084007,-0.003857431933283806,0.0011076531372964382,56.99004166666418
2025-10-02 14:12:04.777690,0.28297267589718106,0.0992805049661547,-9.805413444042207,57.119152666651644,0.03795990474522114,0.0014599949307739736,0.020712592005729676,57.119152666651644,0.329315185546875,0.0999920654296875,-9.78844482421875,57.11667066666996,0.000968271866440773,0.00023396732285618782,0.0017687412910163403,57.119152666651644
2025-10-02 14:12:04.903918,0.28447471596300605,0.09924499226734043,-9.805371344089508,57.27805866667768,0.04349323455244303,-0.0020970216672867538,0.0046532142162323,57.27805866667768,0.32751892089843754,0.09430389404296875,-9.81134719848633,57.27557666663779,0.00012064166367053986,-0.0011765415547415614,3.664102405309677e-05,57.27805866667768
2025-10-02 14:12:05.073754,0.285788183324039,0.0994147168379277,-9.805330998301507,57.42703266663011,0.03888663360849023,-0.0016679913550615311,0.005361312031745911,57.42703266663011,0.3242257690429688,0.09969268798828125,-9.797725524902344,57.42455066664843,0.00195248331874609,0.00036056258250027895,-0.0006145648658275604,57.42703266663011
2025-10-02 14:12:05.199376,0.28651305533945565,0.09974609864875675,-9.805309948325158,57.56607566663297,0.03516806026920676,-0.010531593700870872,0.007732357978820801,57.56607566663297,0.32811767578125,0.09011260986328125,-9.799222412109376,57.563593666651286,0.001035542692989111,0.0005924742436036468,-0.0016033104620873928,57.56607566663297
2025-10-02 14:12:05.546244,0.289778469465673,0.09910454945638776,-9.80522107064724,57.90375079168007,0.04387776207178831,-0.0025552971940487625,0.011234840154647827,57.90375079168007,0.3350033569335938,0.09550140380859376,-9.792037353515626,57.90126879164018,-0.0003233836032450199,-0.001524793216958642,-0.0011721644550561905,57.90375079168007
2025-10-02 14:12:05.711981,0.29129110760986804,0.09873489579185844,-9.805176047086716,58.04279279167531,0.03996999476104975,-0.009221049947664142,0.005356049537658692,58.04279279167531,0.3308120727539063,0.09101074218750001,-9.801617431640626,58.04031079163542,-0.00013997545465826988,0.0011278054444119334,-0.0003138897009193897,58.04279279167531
2025-10-02 14:12:05.840223,0.29287484424188737,0.09858543547801674,-9.805132777690888,58.20169879164314,0.04287697456777096,-0.0011380783002823591,0.004861375093460084,58.20169879164314,0.33709899902343754,0.09490264892578125,-9.80955093383789,58.199216791661456,6.585195660591125e-05,-0.00014376454055309296,0.0007555275224149227,58.20169879164314
2025-10-02 14:12:05.961904,0.2921256697364152,0.10120846901088953,-9.805127515196801,58.3308097916306,1.523149391412735,-2.4752716889977457,-1.132027966976166,58.3308097916306,2.1043240356445314,0.0061372375488281256,-9.118438110351564,58.32832779164892,0.001532105728983879,-0.013504378497600555,0.00710992980748415,58.3308097916306
2025-10-02 14:12:06.084319,0.30864304896444084,0.10298239546827972,-9.804600096344949,58.44998879166087,0.12500510182231667,-11.64278518795967,0.04145558953285217,58.44998879166087,0.3745211791992188,-12.027039642333985,-9.684111785888673,58.44750679167919,-0.020498715341091156,-0.006972599774599075,-0.011842316016554832,58.44998879166087
2025-10-02 14:12:06.259232,0.27949985006824135,0.09448994513601065,-9.805560793876648,58.618826791644096,-0.5579209253937006,0.16237588131800296,-0.28540318071842197,58.618826791644096,1.442849578857422,0.27033782958984376,-8.563092956542969,58.616344791662414,0.006221487186849117,-0.08475443720817566,-0.08660471439361572,58.62875779165188
2025-10-02 14:12:06.429598,0.2639318211190403,0.034873641540762036,-9.806386420726776,58.797596416668966,0.37658619649708275,0.2026823650673032,-1.7584138673543932,58.797596416668966,0.2034269714355469,0.21869522094726562,-8.346942443847656,58.795114416629076,-0.1742435246706009,-0.007250250317156315,-0.030593473464250565,58.797596416668966
2025-10-02 14:12:06.578364,0.22623489489778878,-0.026478519940283152,-9.80735530436039,58.946570416679606,-0.19135744124650955,0.21658320665359498,1.5883967167139055,58.946570416679606,1.1422746276855469,0.07753875732421875,-9.593101043701173,58.944088416639715,0.09833898395299911,0.10875435173511505,-0.06044771894812584,58.946570416679606
2025-10-02 14:12:06.716724,0.1802109123207629,-0.03727775851730258,-9.808273901939392,59.08561341668246,-0.36866899341344833,0.2767797070741654,-1.6620733880996705,59.08561341668246,0.5578898620605469,0.2221380615234375,-8.88163055419922,59.08313141664257,-0.017622413113713264,-0.21824443340301514,-0.03261570632457733,59.08561341668246
2025-10-02 14:12:06.883992,0.26226046761497857,-0.1084823230560869,-9.805891746282578,59.254450416658074,0.5638715271279217,0.3613066180050373,-3.2301972234249114,59.254450416658074,1.292113037109375,0.2016307067871094,-12.881911926269533,59.25196841667639,0.16645465791225433,-0.1935637891292572,-0.07268889248371124,59.254450416658074
2025-10-02 14:12:07.009836,0.176043492089957,-0.13233747370541096,-9.807526627779007,59.383561416645534,0.5042917252331972,0.3528289593011141,0.6564575457572938,59.383561416645534,-0.37976028442382814,0.31853759765625,-13.485456848144532,59.38107941666385,-0.00656896224245429,0.09005388617515564,-0.0021074912510812283,59.383561416645534
2025-10-02 14:12:07.139275,0.26916202761232855,-0.15980328915640712,-9.805004138946535,59.502740416675806,-0.23862556513398886,0.3165273980051279,1.8836273127794267,59.502740416675806,0.5468128967285156,0.1579216003417969,-9.008416900634765,59.500258416635916,-0.07646655291318893,0.20173129439353943,-0.046678584069013596,59.502740416675806
2025-10-02 14:12:07.259299,0.18810410527512433,-0.12199739458970726,-9.80743658065796,59.621920416655485,-0.29587998418137434,0.43125430069863796,1.3408940184116365,59.621920416655485,0.27916946411132815,0.12543914794921876,-5.283712463378906,59.6194384166738,-0.028403418138623238,0.08026549965143204,-0.05208049342036247,59.621920416655485
2025-10-02 14:12:07.419296,0.2333278232999146,-0.08512033022940159,-9.806856536865235,59.78082591667771,1.8232456018030645,0.22058862246572972,-0.9039713537693024,59.78082591667771,0.711171112060547,0.19923568725585938,-10.07914031982422,59.77834391663782,-0.05638507753610611,0.16385240852832794,-0.040507249534130096,59.78082591667771
2025-10-02 14:12:07.569102,0.23757845671847463,-0.05029705011751503,-9.806991022825242,59.929799916630145,0.2809431987069547,0.24953274194151165,2.5083216136693958,59.929799916630145,0.1627116394042969,0.16031661987304688,-10.197693786621095,59.92731791664846,-0.08258356899023056,0.041794389486312866,-0.05359593778848648,59.929799916630145
2025-10-02 14:12:07.756695,0.2140396130271256,-0.046638218876905745,-9.807555863857269,60.11850091663655,-0.9720632763952017,0.21159518452361228,-2.3410321891307833,60.11850091663655,0.3683839416503906,0.18920654296875,-9.5034375,60.116018916654866,-0.12621457874774933,0.1275702863931656,-0.005739974323660135,60.11850091663655
2025-10-02 14:12:07.884222,0.30824255123734473,-0.02808424301678315,-9.805115820765495,60.24761191668222,-0.7850011266767979,0.250821066275239,0.46663587570190435,60.24761191668222,-0.12094848632812501,0.14385086059570312,-5.9348583984375,60.24512991664233,0.25100177526474,-0.04627550020813942,-0.012932408601045609,60.24761191668222
2025-10-02 14:12:08.028338,0.2725897750630975,-0.0883664759527892,-9.8058139783144,60.38665391667746,0.7179005263745785,0.3052654413878918,-0.6596723449230194,60.38665391667746,-0.46493316650390626,0.13022918701171876,-10.415790252685547,60.38417191663757,0.02982180193066597,-0.032156359404325485,-0.042642977088689804,60.38665391667746
2025-10-02 14:12:08.178610,0.28957038167864085,-0.16508211890235544,-9.804335802197457,60.54555991664529,-1.039510908946395,0.339469496794045,7.328634050488472,60.54555991664529,-1.833088073730469,0.1435514831542969,-5.968538360595703,60.543077916663606,0.04185396432876587,-0.11654320359230042,0.018268560990691185,60.54555991664529
2025-10-02 14:12:08.436849,0.2791997782699764,-0.08702000836841763,-9.805642654895783,60.80378216668032,-0.5550760357081891,0.30332018237560987,-2.5153879737854004,60.80378216668032,0.7358697509765625,0.13382171630859377,-10.812465362548828,60.80130016664043,-0.06883624196052551,-0.03949202224612236,-0.003815795760601759,60.80378216668032
2025-10-02 14:12:08.627735,0.34325315695256,-0.09199481944553554,-9.803563969731332,60.992483166686725,-1.1122040055692197,0.26907654862850905,2.4703117883205414,60.992483166686725,-0.7997868347167969,0.18351837158203127,-8.749754791259766,60.990001166646834,-0.09284472465515137,0.3124731183052063,-0.01759563572704792,60.992483166686725
2025-10-02 14:12:08.781541,0.25312413834035397,-0.13149936670437457,-9.805850815773011,61.14145716663916,-1.6955247241258622,0.44988729391247034,-0.8022876888513566,61.14145716663916,-0.264649658203125,0.11271560668945313,-8.429720306396485,61.138975166657474,-0.11694064736366272,-0.16355790197849274,-0.10895142704248428,61.14145716663916
2025-10-02 14:12:08.910326,0.22526663253083826,-0.1226380210183561,-9.806648375988008,61.280500166642014,0.5326074517518282,0.3357947410270572,2.940126210451126,61.280500166642014,2.0889060974121096,0.13247451782226563,-10.065069580078125,61.27801816666033,0.23559485375881195,-0.15188376605510712,-0.022254224866628647,61.280500166642014
2025-10-02 14:12:09.037594,0.12955045318230987,-0.2122543301805854,-9.806846011877061,61.409611166629475,-0.20469420924782755,0.6505429409444332,1.2582746154069901,61.409611166629475,2.155667266845703,0.07274871826171875,-5.821394348144532,61.40712916664779,-0.03419393301010132,-0.47534456849098206,-0.021113615483045578,61.409611166629475
2025-10-02 14:12:09.279763,0.2592098107561469,-0.2644098858162761,-9.803009653687477,61.64796916663181,-4.989822633862496,10.409113901853562,-1.3068871968984606,61.64796916663181,-0.789158935546875,12.077185363769532,-0.6870712280273438,61.64548716665013,0.16928595304489136,0.38529595732688904,0.08801515400409698,61.64796916663181
2025-10-02 14:12:09.455119,0.21058513283729555,-0.23646659038960935,-9.804890702962876,61.79694366664626,0.06529123423621058,7.573608997464181,-0.42962884783744815,61.79694366664626,0.3094065856933594,6.553671569824219,-9.574090576171875,61.794461666664574,0.0034772828221321106,-0.010096238926053047,-0.003546352032572031,61.79694366664626
2025-10-02 14:12:09.616808,0.1820111055672169,-0.23215929379686714,-9.805567225813865,61.985643666645046,0.23756641510874035,0.9686277448385955,-0.1297251570224762,61.985643666645046,0.4082011413574219,0.7583230590820312,-9.880952453613281,61.983161666663364,-0.009419960901141167,-0.030065428465604782,0.0025815570261329412,61.985643666645046
2025-10-02 14:12:09.749839,0.1980309963785112,-0.22855554515495896,-9.805338599681855,62.11475466663251,0.16840701017528772,0.1329044343531132,0.12586599469184875,62.11475466663251,0.3614982604980469,-0.17199234008789063,-9.701325988769531,62.112272666650824,0.0001730932854115963,-0.005280152894556522,-0.0012852568179368973,62.11475466663251
2025-10-02 14:12:09.879895,0.20877764884382488,-0.2236807031929493,-9.805240366458893,62.243865666678175,0.18176024174317718,1.2760597988963127,-0.12813822269439698,62.243865666678175,0.4340972900390625,1.4897021484375002,-9.84397933959961,62.25131566665368,-0.011648943647742271,0.0119842030107975,-0.003017006441950798,62.253797666635364
2025-10-02 14:12:10.003473,0.20735083686187863,-0.2264763849042356,-9.805195342898369,62.372976666665636,0.2662643302604556,0.37796131543815137,-0.18113972425460817,62.372976666665636,0.55324951171875,0.09744735717773438,-9.53741683959961,62.37049466668395,-0.004602220840752125,0.004053960088640451,-0.006133275106549263,62.372976666665636
2025-10-02 14:12:10.154957,0.2109681802801788,-0.22858247889205816,-9.805067873597146,62.52195166668389,0.16909149985760452,0.26944749964401127,0.01198211431503296,62.52195166668389,0.4117936706542969,0.03817062377929688,-9.983189849853517,62.519469666644,0.006205687765032053,-0.004819395020604134,0.003542463295161724,62.52195166668389
2025-10-02 14:12:10.295323,0.21695709954947234,-0.23209099100902678,-9.804852696061134,62.67092566663632,0.1298716480471194,0.008306371830403805,-0.014127457737922669,62.67092566663632,0.44846740722656253,-0.19489471435546876,-9.889784088134766,62.66844366665464,-0.000374713446944952,0.01131024956703186,0.003889992367476225,62.67092566663632
2025-10-02 14:12:10.434106,0.21810721032321453,-0.23233675679191948,-9.804821121096612,62.80003704165574,0.3197243631631136,0.08908468762412668,0.12400424122810365,62.80003704165574,0.4697232055664063,-0.154478759765625,-9.75536361694336,62.79755504167406,0.009382130578160286,-0.013736920431256294,0.0017013268079608679,62.80003704165574
2025-10-02 14:12:10.576393,0.22501339327543976,-0.2342597781121731,-9.804622900485993,62.9390800416586,0.2533917580917478,0.013618567250669003,-0.03875885367393494,62.9390800416586,0.4704716491699219,-0.23710693359375,-9.803713073730469,62.936598041676916,0.0005860608071088791,-0.0050443848595023155,0.0011597222182899714,62.9390800416586
2025-10-02 14:12:10.720013,0.22600294316187503,-0.23438596833497288,-9.804596588015556,63.08805404166924,0.21063907340168955,0.19876001626253129,0.0059723460674285895,63.08805404166924,0.41119491577148437,-0.038020935058593754,-9.801168365478516,63.08557204162935,-0.0022122953087091446,0.004830364137887955,-0.0007000695914030075,63.08805404166924
2025-10-02 14:12:10.837755,0.23022585712373259,-0.2318884763494134,-9.804557996392251,63.2072330416413,0.19279450412839652,0.23518159165978433,0.011171690225601197,63.2072330416413,0.41314086914062503,0.00718505859375,-9.785001983642578,63.20475104165962,-0.0006280704401433468,0.0014850976876914501,-0.001241397112607956,63.2072330416413
2025-10-02 14:12:11.041304,0.23995348608121278,-0.22261598004028202,-9.804538115859032,63.38600204163231,0.1980356924235821,0.2528531198948622,0.010255431532859802,63.38600204163231,0.4328997802734375,0.031734008789062504,-9.801168365478516,63.38352004165063,0.0007615648210048676,-0.0015308454167097807,-0.0008329129777848721,63.38600204163231
2025-10-02 14:12:11.190415,0.24821223964914682,-0.21177368905395272,-9.804575538039208,63.55484004167374,0.1812447731383145,0.2810795119218528,0.017325299978256225,63.55484004167374,0.42526565551757817,0.06691085815429688,-9.79607894897461,63.55235804163385,-0.0014649280346930027,-0.001445162110030651,-0.001004061195999384,63.55484004167374
2025-10-02 14:12:11.330633,0.2540244268253446,-0.20587538335472347,-9.804548056125642,63.693881666637026,0.17438467355445028,0.3753230517357588,0.018050354719161988,63.693881666637026,0.4381388854980469,0.17947677612304688,-9.780062255859375,63.69139966665534,0.004027401562780142,-0.0017559693660587072,-0.00308590242639184,63.693881666637026
2025-10-02 14:12:11.455390,0.24394859617576004,-0.21182196512818338,-9.804678449034691,63.822992666682694,0.1365601135790348,0.061684178262948995,0.12236351251602173,63.822992666682694,0.3514691162109375,-0.15193405151367187,-9.755213928222657,63.820510666642804,-0.011196646839380264,0.03016745112836361,-0.00040262890979647636,63.822992666682694
2025-10-02 14:12:11.705356,0.24442386517301204,-0.21177056444808842,-9.804670262932778,64.07128366664983,0.17680023143067958,0.1734502336755395,-0.00398429274559021,64.07128366664983,0.42047561645507814,-0.034727783203125,-9.813143463134766,64.06880166666815,9.631318971514702e-05,-0.004421585239470005,0.00020655011758208275,64.07128366664983
2025-10-02 14:12:11.836303,0.24916603015735747,-0.20940375773236156,-9.804601850509645,64.21032666665269,0.1795425390265882,0.43154176443815234,-0.007496130466461182,64.21032666665269,0.43125320434570313,0.20597167968750002,-9.814790039062501,64.20784466667101,0.003509597387164831,-0.0010768419597297907,0.0005819867365062237,64.21032666665269
2025-10-02 14:12:11.958784,0.24577811686322093,-0.21089742897078395,-9.804652136564256,64.31957366666757,0.19655205281451346,0.1266226792149246,0.011717820167541505,64.31957366666757,0.44876678466796877,-0.09026229858398438,-9.790091400146485,64.31709166668588,0.0005992050282657146,-0.00519933644682169,0.0009473031386733055,64.31957366666757
2025-10-02 14:12:12.083523,0.2462316232547164,-0.21034176075831057,-9.804652721285821,64.44868466665503,0.15074282750487328,0.2272566044703126,-0.0007063436508178712,64.44868466665503,0.40610549926757816,0.024998016357421875,-9.804012451171875,64.44620266667334,-0.003721773624420166,0.006470102816820145,-0.0006974651478230953,64.44868466665503
2025-10-02 14:12:12.258447,0.24698569480329755,-0.20900347927585244,-9.804663246273995,64.61752266663825,0.18756066139787436,0.21319478172808887,0.015170601010322571,64.61752266663825,0.4282594299316406,-0.00748443603515625,-9.781259765625,64.61504066665657,0.0012229145504534245,-0.0011330167762935162,0.0006267763674259186,64.61752266663825
2025-10-02 14:12:12.392740,0.2486225497350097,-0.20735650135204198,-9.804656814336777,64.75656616664492,0.18248096588999033,0.23415078235790135,0.014116348028182985,64.75656616664492,0.4314028930664063,0.036524047851562505,-9.79128890991211,64.75408416666323,-0.0016297770198434591,3.996540908701718e-05,0.00012708641588687897,64.75656616664492
2025-10-02 14:12:12.529549,0.2504153974168003,-0.20524783093482257,-9.804656229615212,64.88567716663238,0.1820353532396257,0.22081543961539865,0.014115178585052492,64.88567716663238,0.42646316528320316,0.018411712646484377,-9.787995758056642,64.8831951666507,-0.00017640599980950356,0.00028655974892899394,-0.0015436122193932533,64.88567716663238
2025-10-02 14:12:12.666281,0.25489679485559463,-0.19888604203239085,-9.804671432375908,65.02471916668583,0.1703688606619835,0.21924370804801585,0.011435984373092652,65.02471916668583,0.41733215332031254,0.02305206298828125,-9.794731750488282,65.02223716664594,-0.0007440010085701942,-0.0006392929935827851,-0.0007720645517110825,65.02471916668583
2025-10-02 14:12:12.812658,0.26173856707289817,-0.18943571727722885,-9.804679033756257,65.18362516665366,0.1537973581440747,0.2030573725886643,0.013538643121719362,65.18362516665366,0.415535888671875,0.018262023925781252,-9.796378326416017,65.18114316667197,0.0006094183772802353,0.002363569336012006,-0.000518161803483963,65.18362516665366
2025-10-02 14:12:12.936813,0.2673336032778025,-0.18276367876678706,-9.80465389072895,65.31273616664112,0.15029796402901413,0.2100070076622069,0.011717820167541505,65.31273616664112,0.427510986328125,0.02245330810546875,-9.792336730957032,65.31025416665943,0.003197828773409128,-6.235638284124434e-05,-0.0005339994095265865,65.31273616664112
2025-10-02 14:12:13.064652,0.27170404979959134,-0.1760616732761264,-9.804655060172081,65.4219841666636,0.15326221000403167,0.1976168673299253,0.020851755738258364,65.4219841666636,0.41508682250976564,0.024998016357421875,-9.784702606201172,65.41950216668192,-0.002541722496971488,-0.0008764717495068908,0.0001439349725842476,65.4219841666636
2025-10-02 14:12:13.198886,0.2762442300282419,-0.1690829483047128,-9.804649212956429,65.55109516665107,0.13989034043624998,0.19213504783809185,0.0016875064373016357,65.55109516665107,0.4079017639160156,0.02544708251953125,-9.79892303466797,65.54861316666938,0.00017754314467310905,-1.1516502127051353e-05,-0.003591913264244795,65.55109516665107
2025-10-02 14:12:13.336599,0.28161827802658085,-0.16094782680273056,-9.804636349081994,65.71000129164895,0.1375101216696203,0.19178372154012324,-0.001621432900428772,65.71000129164895,0.41852966308593753,0.02724334716796875,-9.799372100830078,65.70751929166727,0.0016993596218526363,0.002397706266492605,0.00035774149000644684,65.71000129164895
2025-10-02 14:12:13.453300,0.2851251456141472,-0.1565163499675691,-9.8046059435606,65.81924929167144,0.1322069711610675,0.17328150495886804,0.010473532676696777,65.81924929167144,0.42272094726562504,0.0173638916015625,-9.796528015136719,65.81676729163155,0.0011545643210411072,-0.0006155032897368073,-0.0007457449100911617,65.81924929167144
2025-10-02 14:12:13.599936,0.28924587948247793,-0.14987960488535465,-9.8045924949646,65.96822329168208,0.13167889449745418,0.1681415831297636,0.0037211680412292483,65.96822329168208,0.4197271728515625,0.019309844970703125,-9.804611206054688,65.96574129164219,0.0014482229016721249,-0.0013665539445355535,0.0018255719915032387,65.96822329168208
2025-10-02 14:12:13.748690,0.29393331818282603,-0.14315535256639123,-9.804552149176597,66.11719729163451,0.13193114703521133,0.16785395493730904,0.009519267082214357,66.11719729163451,0.41583526611328125,0.02784210205078125,-9.798773345947266,66.11471529165283,-0.0012599467299878597,0.00029881292721256614,0.0011359031777828932,66.11719729163451
2025-10-02 14:12:13.887645,0.29794352140277625,-0.13831937631592156,-9.804500693678856,66.24630929162959,0.13241164198145272,0.16376642229035498,0.006773414611816407,66.24630929162959,0.4293072509765625,0.024698638916015626,-9.794432373046876,66.2438272916479,0.000842842273414135,-0.0004368883965071291,0.00019252300262451172,66.24630929162959
2025-10-02 14:12:14.018244,0.30267983917146923,-0.13234187738969921,-9.804436374306679,66.38535129168304,0.10582069789990783,0.15240016596391798,0.018836220502853395,66.38535129168304,0.4164340209960938,0.025147705078125002,-9.789792022705079,66.38286929164315,0.0010795132257044315,-0.0006474907277151942,-0.00017181970179080963,66.38535129168304
2025-10-02 14:12:14.150884,0.3060966230928898,-0.12789471357129514,-9.80438959658146,66.5144622916705,0.1170733903348446,0.15259335248731076,0.011005629301071167,66.5144622916705,0.42885818481445315,0.025596771240234375,-9.802216186523438,66.5119802916306,0.00034614652395248413,-0.0014851640444248915,0.002981624100357294,66.5144622916705
2025-10-02 14:12:14.310772,0.310057344250381,-0.12270190184935928,-9.804331709146501,66.66343729163054,0.11880087710916996,0.149795542024076,0.008103071451187134,66.66343729163054,0.42616378784179687,0.02305206298828125,-9.79278579711914,66.66095529164886,0.0013133557513356209,0.0014559505507349968,-0.0008750446140766144,66.66343729163054
2025-10-02 14:12:14.438810,0.31296432405710223,-0.11911654452793301,-9.804282007813454,66.80247891665203,0.10616402082145214,0.14456363618373871,0.012994267344474793,66.80247891665203,0.4129911804199219,0.024998016357421875,-9.795180816650392,66.79999691667035,0.0014456533826887608,-0.0006741638062521815,-0.0011629792861640453,66.80247891665203
2025-10-02 14:12:14.618239,0.3175548268854618,-0.11434034692123533,-9.804193130135536,66.99117991665844,0.10561518654227257,0.1318539363797754,0.017693674564361574,66.99117991665844,0.4165837097167969,0.016914825439453125,-9.79607894897461,66.98869791667676,-0.0013083070516586304,-0.0020283048506826162,-0.0008333995938301086,66.99117991665844
2025-10-02 14:12:14.746408,0.3199549261853099,-0.11129281466826797,-9.804147521853448,67.1103589166305,0.10905294734984637,0.13614116057753564,0.0065734398365020754,67.1103589166305,0.42032592773437505,0.026494903564453127,-9.798174591064454,67.10787691664882,0.0006222785450518131,0.0008537664543837309,-0.0006600194610655308,67.1103589166305
2025-10-02 14:12:14.922470,0.3239032585546375,-0.10706706846132875,-9.804066830277444,67.28912891662912,0.10076360553503037,0.13191541437059642,0.017118893265724182,67.28912891662912,0.4240681457519532,0.022752685546875002,-9.79173797607422,67.28664691664744,0.0003034137189388275,0.003055891254916787,0.00042186398059129715,67.28912891662912
2025-10-02 14:12:15.057637,0.3266523635387421,-0.10355347657576204,-9.804013620615006,67.42817091668257,0.09831391453742981,0.12929993653669955,0.012724710702896118,67.42817091668257,0.4213737487792969,0.024399261474609375,-9.790091400146485,67.42568891664268,-0.00019776681438088417,-4.467534017749131e-05,-0.000981530174612999,67.42817091668257
2025-10-02 14:12:15.234115,0.32965589549392466,-0.09829572421498597,-9.803966258168222,67.6069409166812,0.08513154957443476,0.12494031650014223,0.017168594598770143,67.6069409166812,0.4236190795898438,0.026943969726562503,-9.78455291748047,67.6044589166413,-0.00023971544578671455,-0.002424828242510557,0.0003624027594923973,67.6069409166812
2025-10-02 14:12:15.390659,0.33227142814546823,-0.09461135708726943,-9.803915972113609,67.75591491663363,0.0858091687783599,0.12320190274156631,0.011578656435012817,67.75591491663363,0.41344024658203127,0.029189300537109376,-9.791139221191406,67.75343291665195,0.0019501056522130966,0.000873633602168411,-0.0027897367253899574,67.75591491663363
2025-10-02 14:12:15.561628,0.33500346656888724,-0.09166190274059773,-9.803853991627694,67.91482091665966,0.08053253173828126,0.11246860750950874,0.0079206383228302,67.91482091665966,0.41613464355468754,0.024698638916015626,-9.79128890991211,67.91233891667798,-0.00010957475751638412,0.0011148969642817974,-0.0002626054920256138,67.91482091665966
2025-10-02 14:12:15.677748,0.3211595256999135,-0.09190007627941668,-9.804311243891716,68.04393191664713,0.09407698553055525,0.18545551758259535,0.21076054930686952,68.04393191664713,0.4159849548339844,0.21210891723632813,-9.516460418701172,68.04144991666544,0.09830885380506516,-0.1954406052827835,0.0025534790474921465,68.04393191664713
2025-10-02 14:12:15.829832,0.2744548906758428,-0.11292567704804242,-9.805509338378906,68.19290591665776,-0.40423504807055,1.7192353297770024,0.4010166674852371,68.19290591665776,0.036374359130859374,1.6784596252441406,-9.438023529052735,68.19042391667608,-0.0017146819736808538,0.07101557403802872,-0.001141923014074564,68.19290591665776
2025-10-02 14:12:15.987508,0.21598267933353782,-0.15452696274966002,-9.806403377652169,68.3518119166838,0.649517485499382,4.520946982204914,-1.4819206738471986,68.3518119166838,0.15163467407226563,4.398902435302735,-13.028606872558594,68.34932991664391,-0.03540739417076111,0.07759231328964233,0.010441378690302372,68.3518119166838
2025-10-02 14:12:16.124838,0.18083824547007682,-0.18185039849951865,-9.806648375988008,68.48092291667126,0.4363283682614565,6.323428682684899,2.1190835773944854,68.48092291667126,0.41733215332031254,6.481671295166016,-9.646390228271486,68.47844091663137,-0.22220861911773682,0.3756609559059143,-0.004976390395313501,68.48092291667126
2025-10-02 14:12:16.425886,0.16843927949666979,0.07948620904237032,-9.808233556151391,68.71928170829779,-0.766296029984951,-0.4715209320187569,-2.8454048252105713,68.71928170829779,-1.308728485107422,-0.1818717956542969,-16.90255096435547,68.7167997083161,-0.4144696593284607,-0.28715819120407104,0.06238390505313873,68.71928170829779
2025-10-02 14:12:16.601021,0.25138914154842495,-0.0267343950108625,-9.806740761995316,68.96757270832313,-0.40137729451060294,-0.08298743041232229,2.2103387331962585,68.96757270832313,-0.4501139831542969,-0.17019607543945314,-6.90289535522461,68.96509070834145,0.2569868266582489,0.4036947786808014,0.07538839429616928,68.96757270832313
2025-10-02 14:12:16.776738,0.23598677152767777,-0.05049070715904236,-9.807030783891678,69.10661470831838,-0.6257761819660664,0.08701476414687932,0.8644775050878525,69.10661470831838,1.0455757141113282,-0.2125579833984375,-12.336146850585939,69.10413270833669,-0.05700989067554474,-0.2032836377620697,0.04727134108543396,69.10661470831838
2025-10-02 14:12:16.893062,0.3192632005736232,-0.07318368258420378,-9.804529929757118,69.26552070834441,-0.702316673398018,-0.07366095242556185,-2.6389431488513946,69.26552070834441,0.3836521911621094,-0.11002120971679688,-8.82849105834961,69.26303870830452,-0.1737891435623169,0.02284971810877323,0.07823643088340759,69.26552070834441
2025-10-02 14:12:17.111784,0.2939234875515104,-0.07521019962150603,-9.805309363603593,69.464153708308,0.3314760606363416,-0.0035260811727494,0.635974749326706,69.464153708308,0.5245092773437501,-0.04026626586914063,-9.601932678222656,69.46167170832632,-0.1484001725912094,0.06849934905767441,0.04299311712384224,69.464153708308
2025-10-02 14:12:17.244550,0.28147686677053574,0.0253360493760556,-9.805925660133362,69.61312770831864,0.5840231884270907,-0.02832983064232394,0.05954629004001618,69.61312770831864,1.0136920166015626,-0.011526031494140625,-8.678502960205078,69.61064570833696,-0.03126866742968559,-0.14169560372829437,0.007846695370972157,69.61312770831864
2025-10-02 14:12:17.450546,0.22365919640287757,-0.029937890321016312,-9.807408514022828,69.8216922916472,0.15505332179367542,-0.16331024810671807,-0.7064313590526581,69.8216922916472,-0.013621673583984376,-0.16166381835937502,-8.835227050781251,69.81921029166551,-0.014261276461184025,0.1973075419664383,0.05636308714747429,69.8216922916472
2025-10-02 14:12:17.691106,0.2396578727848828,-0.022116965297609568,-9.807048325538636,70.06005129165715,0.23859757158905268,-0.15631198978051544,0.33713992953300476,70.06005129165715,-0.36119888305664066,-0.09026229858398438,-10.309810638427734,70.05756929167546,-0.17012269794940948,0.3814694285392761,0.009876511991024017,70.06005129165715
2025-10-02 14:12:17.836622,0.21594160264357926,-0.06422887281049043,-9.807412607073784,70.20902529166779,-0.5951031504571438,-0.2549074842967093,0.6081431722640992,70.20902529166779,0.6231541442871094,-0.1383123779296875,-10.673404541015625,70.2065432916861,-0.004083208739757538,-0.1263582855463028,0.029494618996977806,70.20902529166779
2025-10-02 14:12:17.992863,0.2116434057801962,-0.0908835378382355,-9.807295662760735,70.33813629165525,-0.07288196168839932,0.07426808984018862,0.5366247081756592,70.33813629165525,0.7415579223632813,-0.002544708251953125,-10.400372314453126,70.33565429167356,-0.04412676393985748,-0.19876788556575775,0.02400115504860878,70.33813629165525
2025-10-02 14:12:18.286024,0.25782915523275735,-0.13966991867870093,-9.805616342425347,70.64601729164133,0.9320464673638345,0.021415856732055545,0.02794969081878662,70.64601729164133,0.662073211669922,-0.06032455444335938,-8.022566986083985,70.64353529165965,-0.028809858486056328,-0.09690863639116287,0.05517318844795227,70.64601729164133
2025-10-02 14:12:18.419843,0.2071812493354082,-0.12910549834370613,-9.806961202025414,70.7751280416851,1.028199689537287,0.10141312155872584,-1.4360077518224716,70.7751280416851,1.039588165283203,-0.26105712890625,-9.38413558959961,70.7726460416452,0.12286222726106644,-0.17485596239566803,0.0014926355797797441,70.7751280416851
2025-10-02 14:12:18.624322,0.2717666698247194,-0.09244783247821034,-9.805799944996835,70.9538970416761,-0.259043092019856,0.049936226662248374,-1.0114560413360596,70.9538970416761,0.5646258544921875,0.0053887939453125,-7.897427215576172,70.95141504163621,-0.147131085395813,-0.12000634521245956,0.017667751759290695,70.9538970416761
2025-10-02 14:12:18.816869,0.16215016052126885,-0.09366235398687422,-9.808213675618171,71.13266604166711,-0.28609240299090744,-0.06291205700486899,3.6024181079864506,71.13266604166711,0.4040098571777344,-0.11316467285156251,-10.20517822265625,71.13018404168542,0.09353576600551605,-0.05772356688976288,0.04363907128572464,71.13266604166711
2025-10-02 14:12:18.952271,0.1892382275685668,-0.06560501044616103,-9.807956398129464,71.32136704167351,0.8383748766034842,0.018602747577242555,-1.2470052766799928,71.32136704167351,0.08966354370117188,-0.22887405395507815,-10.13332763671875,71.31888504163362,-0.08291454613208771,0.04183501750230789,0.0565941147506237,71.32136704167351
2025-10-02 14:12:19.221664,0.17342297103255988,-0.08223219855688513,-9.808125382661819,71.57958904164843,-0.05352226920425892,0.05094722852110863,0.7583908867835999,71.57958904164843,0.28455825805664064,-0.2281256103515625,-9.655371551513673,71.57710704166675,0.00021619675680994987,0.20886069536209106,0.03343722224235535,71.57958904164843
2025-10-02 14:12:19.409012,0.22277445785701275,0.0448815371375531,-9.807371091842652,71.73849445831729,-0.16858706787228586,-0.09098564484156668,-2.3708576667308807,71.73849445831729,0.2183958435058594,-0.04954696655273438,-10.008636932373047,71.73601245833561,-0.013941518031060696,-0.026315173134207726,0.037321195006370544,71.73849445831729
2025-10-02 14:12:19.550764,0.21014606175944212,0.08272123591974379,-9.807400327920915,71.90733245830052,0.331128334030509,-0.2156448199041188,-1.8085940873622894,71.90733245830052,0.8643026733398438,-0.16316070556640624,-13.574521636962892,71.91478145832662,-0.16081227362155914,-0.033732324838638306,0.014782780781388283,71.9172634583083
2025-10-02 14:12:19.726197,0.20475001361221076,0.08733533774502576,-9.807474002838136,72.04637445829576,0.4445996202528477,-0.246454475261271,-1.7366692417860032,72.04637445829576,-0.1974394226074219,-0.07544311523437501,-10.336006164550781,72.04389245831408,-0.06934157758951187,0.2904018759727478,0.04234496131539345,72.04637445829576
2025-10-02 14:12:19.855505,0.2535718523338437,0.09795348851010204,-9.806234393119812,72.22514445835259,0.49562019478529695,-4.0247376438975335,0.5948384177684785,72.22514445835259,0.5845344543457032,-5.560187530517578,-10.139315185546875,72.2226624583127,0.0167691670358181,0.042884983122348785,0.011182526126503944,72.22514445835259
2025-10-02 14:12:20.082340,0.28158611834049224,0.09965519271790982,-9.805449696779252,72.45357145834714,0.13469815911725164,-0.9473424180597068,-0.02086461961269379,72.45357145834714,0.44143203735351566,-0.7306306457519531,-9.819430389404298,72.45108945830725,0.0036070309579372406,-0.0015037856064736843,-0.003599214367568493,72.45357145834714
2025-10-02 14:12:20.309638,0.2762519044987857,0.09851388931274414,-9.805615757703782,72.63234045833815,0.12955425387248398,0.623734188079834,-0.008876073360443116,72.63234045833815,0.4123924255371094,0.7336244201660157,-9.814340972900391,72.62985845829826,-0.0005001015961170197,-1.359888119623065e-05,-0.0016207839362323284,72.63234045833815
2025-10-02 14:12:20.492327,0.27488296167925,0.09947193732485175,-9.805644993782044,72.83097316668136,0.12269031705334783,-0.02477725655771792,-0.004505864381790161,72.83097316668136,0.40236328125000004,0.096998291015625,-9.811796264648438,72.82849116664147,-0.0016705619636923075,-0.0024458940606564283,0.0010903733782470226,72.83097316668136
2025-10-02 14:12:20.722619,0.26538637083023786,0.1005390907265246,-9.805893500447274,73.00974316667998,0.13308496713638307,-0.0066842628456652165,0.010713268518447876,73.00974316667998,0.40011795043945314,0.014519805908203126,-9.79802490234375,73.00726116664009,6.342260167002678e-05,-0.009073288179934025,0.0005937970709055662,73.00974316667998
2025-10-02 14:12:20.911188,0.24908696483820678,0.10115273773670197,-9.806317423582078,73.27789616666269,0.024544053152203562,-0.04187599520199001,-0.10038265943527222,73.27789616666269,0.2743794250488281,0.05358856201171875,-9.903256072998047,73.275414166681,-0.0013935933820903301,0.003757939673960209,-0.013747695833444595,73.27789616666269
2025-10-02 14:12:21.044308,0.2523614969663322,0.0990590964909643,-9.806252519488336,73.41693916666554,0.01632972015067935,-0.05654751808382571,0.044303768277168275,73.41693916666554,0.19115249633789064,0.046403503417968756,-9.911788330078126,73.41445716668386,0.003876802045851946,0.014637070707976818,-0.005987879820168018,73.41693916666554
2025-10-02 14:12:21.277920,0.24875657888129354,0.0987742548622191,-9.806347829103471,73.63543516665231,-0.0221278740093112,0.007953793862834574,0.05667296826839447,73.63543516665231,0.41164398193359375,0.15058685302734376,-10.014774169921875,73.63295316667063,0.0016218149103224277,0.00131977628916502,-0.01043575257062912,73.63543516665231
2025-10-02 14:12:21.404416,0.24226054156199098,0.09861964168958366,-9.80651272058487,73.76454554166412,0.023287248965352773,-0.0671850103419274,-0.059620549678802495,73.76454554166412,0.35940261840820314,0.04445755004882813,-9.924212493896485,73.76206354168244,-0.002299418905749917,-0.0010301072616130114,-0.005944774020463228,73.76454554166412
2025-10-02 14:12:21.588974,0.23991324992850424,0.09601564815267921,-9.806597505211831,73.93338354164734,0.0072228827700018886,0.07433014341630043,0.054974352121353154,73.93338354164734,0.31674133300781254,0.15762222290039063,-9.740394744873047,73.93090154166566,0.006678718142211437,0.010680118575692177,-0.0004017059691250324,73.93338354164734
2025-10-02 14:12:21.760817,0.23090272715315224,0.09470914263278246,-9.806826131343842,74.08235754165798,0.1361340525560081,-0.02420573690906167,-0.2172299087047577,74.08235754165798,0.5246589660644532,0.14115646362304687,-10.005194091796875,74.0798755416763,-0.013549234718084335,-0.028802182525396347,-0.009029628708958626,74.08235754165798
2025-10-02 14:12:21.926294,0.23020199317485096,0.09010077838785947,-9.806882264614107,74.29092154162936,-0.10266725795343519,0.1591309141740203,-0.06523621559143067,74.29092154162936,0.17124389648437502,0.25297393798828127,-9.808203735351563,74.28843954164768,0.007454495411366224,0.021646717563271523,-0.006836642976850271,74.29092154162936
2025-10-02 14:12:22.062384,0.2209737712517381,0.08976232510060073,-9.807098611593247,74.42996454163222,0.023767250552773476,0.013073807749897243,0.1258326655626297,74.42996454163222,0.3338058471679688,0.09370513916015626,-9.865833892822266,74.42748254165053,0.0010518128983676434,0.0006296240026131272,-0.0025918656028807163,74.42996454163222
2025-10-02 14:12:22.481860,0.21631480118259788,0.08974194207228721,-9.807202692031861,74.6285965416464,0.2285600402019918,0.16323196850717067,0.13581620156764984,74.6285965416464,0.49187713623046875,0.19908599853515627,-9.813143463134766,74.62611454166472,0.006967760622501373,-0.0015691706212237477,-0.004185454919934273,74.6285965416464
2025-10-02 14:12:22.785929,0.20482931647449734,0.08588424154557288,-9.807486281991006,75.14504204166587,0.1322697008214891,0.16544312965124847,-0.02032726049423218,75.14504204166587,0.3614982604980469,0.2389031982421875,-9.749825134277344,75.14256004168419,0.00011100899428129196,-0.00018760145758278668,-0.009814510121941566,75.14504204166587
2025-10-02 14:12:22.927410,0.20142386153340341,0.0850388894788921,-9.807562880516052,75.28408404166112,0.24674416825175285,0.08336092131212354,-0.02818241000175476,75.28408404166112,0.5158273315429688,0.17498611450195314,-9.800120544433595,75.28160204167943,9.147683158516884e-05,-0.015285160392522812,-0.0056576961651444435,75.28408404166112
2025-10-02 14:12:23.079178,0.2039152322150767,0.08409182326868177,-9.80752019584179,75.44299004162895,0.18767044287174942,0.013205836052075029,-0.01939462959766388,75.44299004162895,0.3661386108398438,0.10942245483398438,-9.805509338378906,75.44050804164726,-0.0007101362571120262,-0.0041193547658622265,-0.002350790426135063,75.44299004162895
2025-10-02 14:12:23.257707,0.2011432682722807,0.08443056891672314,-9.807576329112054,75.62176004168577,0.1344588618166745,0.0633122075535357,0.022422902584075928,75.62176004168577,0.31524444580078126,0.15432907104492188,-9.776769104003908,75.61927804164588,0.0011239871382713318,-0.0030132548417896032,-0.0005512023344635963,75.62176004168577
2025-10-02 14:12:23.391026,0.2019197054207325,0.08444697766564786,-9.807555279135704,75.74093895830447,0.15134562062099577,0.09233538321219385,0.0318369197845459,75.74093895830447,0.3597019958496094,0.15822097778320313,-9.768685913085937,75.73845695832279,0.0008362717926502228,-0.004836731590330601,-0.0030669840052723885,75.74093895830447
2025-10-02 14:12:23.571659,0.20283106707036497,0.08374096292071045,-9.807547677755357,75.91970795829548,0.1073240170441568,0.07852162859402598,0.0331712543964386,75.91970795829548,0.3209326171875,0.13726455688476563,-9.763147430419922,75.9172259583138,-0.0016128576826304197,0.0003228672139812261,9.949086233973503e-05,75.91970795829548
