timestamp,gravity_x,gravity_y,gravity_z,gravity_time,lin_acc_x,lin_acc_y,lin_acc_z,lin_acc_time,acc_x,acc_y,acc_z,acc_time,gyro_x,gyro_y,gyro_z,gyro_time
2025-10-03 16:08:25.633691,0.33331701993942264,0.13055214517749847,-9.80346456706524,215.4371525416609,0.008571908511221409,0.0020720339566469193,0.0043941825628280645,215.4371525416609,0.3384461975097656,0.13307327270507813,-9.799222412109376,215.43342954165928,0.00016174325719475746,0.0005008988664485514,0.0005522482097148895,215.4371525416609
2025-10-03 16:08:25.750121,0.3332122085988522,0.13078475472517312,-9.803465151786805,215.55631654166064,0.003287962451577187,-0.002651237212121487,0.009484183788299561,215.55631654166064,0.338895263671875,0.1275347900390625,-9.797426147460937,215.55259354166265,0.0009338231757283211,0.002790756756439805,-0.00047974707558751106,215.55631654166064
2025-10-03 16:08:25.885961,0.3336414673179388,0.13094309549778702,-9.803448194861412,215.67548054166036,0.006600921750068665,-0.003558021588250995,0.01695166289806366,215.67548054166036,0.33799713134765624,0.1323248291015625,-9.783505096435547,215.67175754166237,0.000403418205678463,-0.0004179326060693711,-0.0015862700529396534,215.67548054166036
2025-10-03 16:08:26.003955,0.33398597795516255,0.13073592133820058,-9.8034400087595,215.80457454166026,0.004759560450911522,0.003235474554821849,0.00930818259716034,215.80457454166026,0.3347039794921875,0.1347198486328125,-9.793534240722657,215.80085154166227,0.00144877377897501,-0.00084589485777542,0.001043553464114666,215.80457454166026
2025-10-03 16:08:26.136104,0.33415898244827985,0.13055344252847137,-9.803437085151673,215.94359854166032,-0.0025985026359558105,-0.0022702271584421397,0.00451463520526886,215.94359854166032,0.33320709228515627,0.1293310546875,-9.793983306884765,215.93987554166233,0.0017634122632443905,-0.0003669991565402597,-0.001188943162560463,215.94359854166032
2025-10-03 16:08:26.267031,0.33402917426079515,0.13069529232569038,-9.803440593481064,216.07269241665927,0.0023213811591267586,-0.004956757798790932,0.001074718236923218,216.07269241665927,0.3359014892578125,0.12484039306640625,-9.798174591064454,216.06896941666128,0.0006279600784182549,0.00027163460617884994,-0.0011883093975484371,216.07269241665927
2025-10-03 16:08:26.420250,0.33443888135254385,0.13075684340670707,-9.803427144885063,216.22164741665983,0.0038577005267143253,-0.0012760634534060955,0.009741461277008057,216.22164741665983,0.34129028320312504,0.13172607421875002,-9.796528015136719,216.21792441666184,0.0022270269691944122,-0.0009113883133977652,0.0012560791801661253,216.22164741665983
2025-10-03 16:08:26.564869,0.33434276774525645,0.131027724808082,-9.803424221277238,216.35074141665973,0.002606506012380123,0.0008480289950966836,0.009142706394195557,216.35074141665973,0.3438349914550781,0.13022918701171876,-9.794881439208984,216.34701841666174,-0.0008914424106478691,-0.00041565680294297636,-0.0015451726503670216,216.35074141665973
2025-10-03 16:08:26.685914,0.33410197209566833,0.1312317012716085,-9.803428314328194,216.48976641666013,0.0016497553512454034,-0.011929827416315675,0.004507618546485901,216.48976641666013,0.3373983764648438,0.12289443969726563,-9.794881439208984,216.48604341666214,0.0014305147342383862,-0.0006115714786574244,0.0030428487807512283,216.48976641666013
2025-10-03 16:08:26.809887,0.3342808968946338,0.1313880412001163,-9.80342012822628,216.60893041665986,0.004464568421244621,0.0021342611219733955,0.01168449103832245,216.60893041665986,0.34368530273437503,0.1333726501464844,-9.791438598632814,216.60520741666187,-0.002291625365614891,0.0017737484304234385,0.0026272572576999664,216.60893041665986
2025-10-03 16:08:26.930174,0.33407693870365623,0.13209984834305943,-9.80341895878315,216.7280944166596,-0.0025164588913321496,-0.0030681893695145845,0.0038983386754989626,216.7280944166596,0.3430865478515625,0.13307327270507813,-9.801018676757813,216.73430141666176,-0.0017325666267424822,-0.005095446482300758,-0.0018303231336176395,216.7280944166596
2025-10-03 16:08:27.048319,0.3343504422158003,0.1330628116708249,-9.803399662971497,216.85718841665948,0.006640500091016293,-0.0037317387107759716,0.015401566028594972,216.85718841665948,0.33560211181640626,0.12768447875976563,-9.78844482421875,216.8534654166615,-0.0016189650632441044,0.0005110480124130845,0.001314045861363411,216.85718841665948
2025-10-03 16:08:27.191193,0.334353694729507,0.13287123313173652,-9.803399662971497,216.99621308332644,-0.0027932149171829225,0.004393323753029108,0.022290170788764954,216.99621308332644,0.3335064697265625,0.13965957641601562,-9.781110076904298,216.99249008332845,-0.00013564620167016983,-3.790773916989565e-06,0.0006955002900213003,216.99621308332644
2025-10-03 16:08:27.320535,0.3343675087764859,0.13269002426415683,-9.803402001857759,217.11537708332617,0.00362962257117033,-0.006502432711422443,0.006574609279632568,217.11537708332617,0.33859588623046877,0.13007949829101564,-9.797725524902344,217.11165408332818,-0.0013780193403363228,0.0001916638866532594,-0.0003007897175848484,217.11537708332617
2025-10-03 16:08:27.437452,0.3346732816100121,0.1322854974400252,-9.803396154642106,217.24447108332606,0.006018210165202618,-0.0029544701613485815,0.00821650743484497,217.24447108332606,0.3418890380859375,0.12603790283203126,-9.800120544433595,217.24074808332807,-0.0007903939113020897,0.0006859882269054651,0.0027738423086702824,217.24447108332606
2025-10-03 16:08:27.570748,0.3344834298267961,0.13234083585441114,-9.803403756022453,217.3735660833263,0.005160277448594571,-0.0022613375633955004,0.006426090002059937,217.3735660833263,0.3387455749511719,0.1327738952636719,-9.800120544433595,217.3698430833283,7.948745042085648e-05,-0.000662920530885458,0.0008978268597275019,217.3735660833263
2025-10-03 16:08:27.705858,0.334940024279058,0.13144827665761113,-9.803398493528366,217.5026600833262,-0.0023317234218120575,-0.0025663064047694206,0.010463592410087586,217.5026600833262,0.3359014892578125,0.12843292236328124,-9.79368392944336,217.4989370833282,0.0006355857476592064,0.001827278290875256,-0.0007248213514685631,217.5026600833262
2025-10-03 16:08:27.854954,0.3353521433472634,0.1317141148354858,-9.80338095188141,217.65161508332676,0.006536858193576336,0.000311327688395977,0.013439825177192688,217.65161508332676,0.33679962158203125,0.132923583984375,-9.790390777587891,217.64789208332877,-0.001056454610079527,-0.0006914613768458366,0.0012241811491549015,217.65161508332676
2025-10-03 16:08:27.992446,0.33584626961499453,0.13169560474343597,-9.803364579677583,217.79063908332682,-0.001142326667904854,-0.002214879607781768,0.012824698090553284,217.79063908332682,0.3369493103027344,0.1285826110839844,-9.787247314453126,217.78691608332883,7.91824422776699e-05,-0.0021507313940674067,-0.0006357729434967041,217.79063908332682
2025-10-03 16:08:28.119865,0.33533346880227327,0.13117462696507573,-9.803389137983322,217.91973308332672,0.005058645531535149,-0.008429885124787689,0.0011735361814498902,217.91973308332672,0.34024246215820314,0.12484039306640625,-9.79997085571289,217.91601008332873,-7.22506083548069e-05,-0.001067578443326056,0.0029161458369344473,217.91973308332672
2025-10-03 16:08:28.244939,0.3351348461955786,0.13096282071433962,-9.803402001857759,218.03889641665955,0.005407066494226456,-0.0028292575199157003,0.021092076301574707,218.03889641665955,0.34368530273437503,0.13142669677734375,-9.79128890991211,218.03517341666156,-0.0034925108775496483,-0.0029208387713879347,-0.0011022631078958511,218.03889641665955
2025-10-03 16:08:28.382090,0.33550808127969506,0.1313286188710481,-9.803383875489235,218.17792141665996,-0.0042469058185815815,-0.0013988001644611359,0.007752238512039185,218.17792141665996,0.32647109985351563,0.1335223388671875,-9.795480194091798,218.17419841666197,-0.0021150195971131325,-0.001369265140965581,0.0005433910991996527,218.17792141665996
2025-10-03 16:08:28.523946,0.33570878695696593,0.13171980673447253,-9.803369257450104,218.31694541666002,-0.0026513833925127985,0.001952211717143655,0.00773937463760376,218.31694541666002,0.3342549133300781,0.13262420654296875,-9.796528015136719,218.31322241666203,-0.0008136406540870667,-0.0013152867322787642,0.00024621281772851944,218.31694541666002
2025-10-03 16:08:28.649862,0.3357435778900981,0.13107585470192135,-9.803373350501062,218.45597041666042,0.006893794164061546,-9.826976805925369e-05,0.007447598576545715,218.45597041666042,0.3441343688964844,0.13322296142578124,-9.798623657226562,218.45224741666243,-0.0011449912562966347,-0.0004362126346677542,0.0014611596707254648,218.45597041666042
2025-10-03 16:08:28.779893,0.33623105295002464,0.13113281023688614,-9.803361656069756,218.57513441666015,0.0013170487806200982,-0.00030484093353152277,0.007882046699523927,218.57513441666015,0.34143997192382813,0.12918136596679688,-9.79128890991211,218.58134141666233,-0.00010204361751675606,-1.143642293754965e-05,0.0007891468703746796,218.57513441666015
2025-10-03 16:08:28.899532,0.335872289724648,0.13105296833440663,-9.80337451994419,218.70422841666004,0.006316198892891407,0.0023197092209011317,-0.0006396853923797608,218.70422841666004,0.3457809448242188,0.1285826110839844,-9.80416213989258,218.70050541666205,0.00015585357323288918,0.0018108254298567772,-0.00122931320220232,218.70422841666004
2025-10-03 16:08:29.034516,0.335783521682024,0.1309991648141295,-9.80337451994419,218.83332241665994,0.004159489944577217,-0.004063157066702843,0.005351371765136719,218.83332241665994,0.33485366821289064,0.12828323364257813,-9.80086898803711,218.82959941666195,0.00281773554161191,-0.002289020689204335,-0.0019851326942443848,218.83332241665994
2025-10-03 16:08:29.171318,0.33591263551265005,0.13039202283136547,-9.803381536602975,218.97234741666034,-0.0022564039751887324,0.0020825223997235297,0.005953634977340698,218.97234741666034,0.33679962158203125,0.1347198486328125,-9.799372100830078,218.96862441666235,0.001117226667702198,5.83878718316555e-05,0.0009832745417952538,218.97234741666034
2025-10-03 16:08:29.307913,0.33596240993589166,0.12989768642932178,-9.803388553261758,219.1113722916598,0.007722965888679028,0.00018184840679168703,0.0068576145172119145,219.1113722916598,0.3387455749511719,0.13007949829101564,-9.795929260253907,219.1076492916618,-0.0004337634891271591,0.0016700774431228638,-0.00018923869356513023,219.1113722916598
2025-10-03 16:08:29.447026,0.3360973344370723,0.13005876808427275,-9.80338095188141,219.24046729166002,-0.0010939044132828714,0.0007692103553563357,0.01418534517288208,219.24046729166002,0.33724868774414063,0.13112731933593752,-9.785900115966797,219.23674429166203,0.00017719902098178864,0.0017753776628524065,-0.002410808578133583,219.24046729166002
2025-10-03 16:08:29.584767,0.3366993783786893,0.13014687831513586,-9.803355808854104,219.3794912916601,0.003842424675822258,0.004722631629556418,0.009223397970199585,219.3794912916601,0.34398468017578127,0.1323248291015625,-9.791588287353516,219.3757682916621,-0.0005849725566804409,-0.001184365595690906,-0.0008572330698370934,219.3794912916601
2025-10-03 16:08:29.718120,0.3366408696770668,0.13005700478330257,-9.803359317183496,219.5185162916605,0.00015875190496444702,0.00017217309214174749,0.00698157548904419,219.5185162916605,0.33141082763671875,0.13382171630859377,-9.79128890991211,219.5147932916625,0.0006123697385191917,0.0012590186670422554,0.0007905559614300728,219.5185162916605
2025-10-03 16:08:29.843654,0.33759893596172336,0.12992708696052432,-9.803331250548363,219.64761029166038,-0.002894846834242344,0.0004518435895442963,0.010243152379989625,219.64761029166038,0.33365615844726565,0.13112731933593752,-9.796378326416017,219.6438872916624,2.8139445930719376e-05,0.001965833595022559,-0.0003522220067679882,219.64761029166038
2025-10-03 16:08:29.978492,0.33752259325236084,0.12986155246384443,-9.803333004713059,219.77670529166062,-0.005363285467028618,-0.006667707916349173,0.005157244205474854,219.77670529166062,0.3297642517089844,0.12124786376953126,-9.79847396850586,219.77298229166263,-0.001821308396756649,0.0012843768345192075,-0.002355719916522503,219.77670529166062
2025-10-03 16:08:30.105408,0.337723883651197,0.13048595286905768,-9.803318386673928,219.90579929166051,0.0019198601692914964,0.006179867405444384,0.007387372255325318,219.90579929166051,0.33635055541992187,0.137713623046875,-9.795779571533204,219.90207629166252,-0.0008424702100455761,-0.000302489468595013,-0.0002305125817656517,219.90579929166051
2025-10-03 16:08:30.227480,0.3374610513076186,0.13027247468009592,-9.803327742218972,220.0348924583268,0.0036795431748032573,0.001004533376544714,0.007698444128036499,220.0348924583268,0.33679962158203125,0.13067825317382814,-9.797725524902344,220.0311694583288,-0.0004077707417309284,0.0009544446947984397,0.0003385799936950207,220.0348924583268
2025-10-03 16:08:30.356420,0.33777102682739496,0.13061426270753146,-9.803316632509231,220.16398745832703,0.005465319380164146,-0.004576305057853461,0.012772657871246339,220.16398745832703,0.34338592529296874,0.12663665771484375,-9.78844482421875,220.16026445832904,0.00124790845438838,-0.0005801558145321906,-0.0022023110650479794,220.16398745832703
2025-10-03 16:08:30.475151,0.3376025539264083,0.13055189849808813,-9.803318386673928,220.28315145832676,-0.006341488100588322,-0.005412146262824536,0.005594615936279297,220.28315145832676,0.33171020507812504,0.1285826110839844,-9.797875213623048,220.27942845832877,-0.0011247070506215096,0.0006815848755650222,-0.00026656966656446457,220.28315145832676
2025-10-03 16:08:30.618842,0.33792283516377214,0.1306349380966276,-9.803307861685754,220.42217545832682,0.001870560832321644,-0.006393290776759386,0.007079808712005616,220.42217545832682,0.3373983764648438,0.12064910888671876,-9.791887664794922,220.41845245832883,0.0035971226170659065,0.0011248985538259149,-0.0008511492051184177,220.42217545832682
2025-10-03 16:08:30.754802,0.3380413143709302,0.13045839786529542,-9.803307861685754,220.56120045832722,0.000704333670437336,-0.0032229578588157896,0.012316575050354004,220.56120045832722,0.34248779296875004,0.12678634643554687,-9.787995758056642,220.55747745832923,0.00020796386525034904,-0.001177518512122333,0.0022723088040947914,220.56120045832722
2025-10-03 16:08:30.878357,0.33809101570397615,0.1308657112531364,-9.80329850614071,220.68036445832695,0.00035514526069164277,0.0017584861535578967,0.020542438030242922,220.68036445832695,0.3369493103027344,0.12843292236328124,-9.78455291748047,220.67664145832896,-0.002696309005841613,0.0024363885167986155,-0.0010337554849684238,220.68036445832695
2025-10-03 16:08:31.011609,0.33849001508206134,0.13054091669619083,-9.803287396430969,220.80945845832684,0.003997704796493053,-0.000311747957020998,0.0111026930809021,220.80945845832684,0.34129028320312504,0.12918136596679688,-9.789043579101563,220.80573545832885,9.72207635641098e-06,-9.54728020587936e-05,0.0007461130153387785,220.80945845832684
2025-10-03 16:08:31.145367,0.3391546242311597,0.13084660730324688,-9.80326517701149,220.94848345832725,-0.0007083536311984063,0.007016731873154641,0.014967702627182007,220.94848345832725,0.33679962158203125,0.13457015991210938,-9.789342956542969,220.94476045832926,-0.0005985763855278492,0.004054558929055929,0.0015550137031823397,220.94848345832725
2025-10-03 16:08:31.272384,0.3403031635656953,0.1309553929232061,-9.803220738172532,221.07757891666188,0.0018852154165506364,0.0006209743022918702,0.0035498446226119996,221.07757891666188,0.34024246215820314,0.12708572387695313,-9.79997085571289,221.07385591666025,0.0008143307641148567,0.0012217896291986108,0.003806689288467169,221.07757891666188
2025-10-03 16:08:31.397684,0.3402609905228019,0.131110015232116,-9.803223661780358,221.1967429166616,-0.00795195747166872,-0.001479555694386363,0.004447392225265503,221.1967429166616,0.3350033569335938,0.13157638549804687,-9.806557159423829,221.19301991665998,0.00013206340372562408,0.0011948441388085485,-8.623534813523293e-05,221.1967429166616
2025-10-03 16:08:31.522493,0.3403000206872821,0.13046325836330652,-9.80322717010975,221.3258369166615,0.0002417823672294617,-0.006371336309239269,0.013884798288345337,221.3258369166615,0.3393443298339844,0.12469070434570313,-9.789792022705079,221.32211391665987,0.0012366599403321743,0.0003508094232529402,0.00015014875680208206,221.3258369166615
2025-10-03 16:08:31.653221,0.34041086196899417,0.13114264086820185,-9.80321606040001,221.4549309166614,-0.007652799300849438,-0.003907209997996688,0.0039924788475036626,221.4549309166614,0.33126113891601566,0.1299298095703125,-9.802066497802734,221.45120791665977,-0.0022403267212212086,0.001066470518708229,0.0013299931306391954,221.4549309166614
2025-10-03 16:08:31.783272,0.3406100692972541,0.1316391334310174,-9.803202027082444,221.58402591666163,0.0008299026265740395,-0.011738468147814275,0.010865296125411988,221.58402591666163,0.34682876586914063,0.11765533447265626,-9.793534240722657,221.58030291666,0.00340935867279768,0.0006468169158324599,-0.0010741138830780983,221.58402591666163
2025-10-03 16:08:31.910925,0.34095896534621717,0.13128894003108144,-9.803194425702095,221.71311991666153,-0.00011771176010370255,-0.004203197881579399,0.01908998966217041,221.71311991666153,0.3350033569335938,0.12558883666992188,-9.784852294921876,221.7093969166599,0.0025370512157678604,-0.0005911035696044564,-0.0005092993378639221,221.71311991666153
2025-10-03 16:08:32.055717,0.3404753640666604,0.13116619418375194,-9.803211967349053,221.85214491666193,0.001263948753476143,-0.0006376571394503117,-0.0018477201461791993,221.85214491666193,0.34084121704101566,0.12693603515625002,-9.799671478271485,221.8484219166603,0.001292247325181961,-0.001499637495726347,-0.0012970692478120327,221.85214491666193
2025-10-03 16:08:32.194213,0.34101696241647006,0.13081418266519904,-9.803196764588357,221.99116991666233,-0.004965820983052254,0.002109392182901502,0.005023927688598633,221.99116991666233,0.33709899902343754,0.13112731933593752,-9.796977081298829,221.9874469166607,0.0018999152816832066,-3.806821769103408e-05,0.0006623081862926483,221.99116991666233
2025-10-03 16:08:32.327071,0.3410374642163515,0.13133481326512994,-9.80319150209427,222.13019545832867,0.003396318666636944,-0.007841600412502885,0.011901422739028932,222.13019545832867,0.3423381042480469,0.12214599609375,-9.796827392578125,222.12647245832704,-0.002740129129961133,0.0008420303929597139,-0.001240540761500597,222.13019545832867
2025-10-03 16:08:32.493589,0.34097460664808754,0.13152441836893558,-9.803188578486443,222.26921945832873,-0.0014806611835956574,-0.002642466388642788,0.007710138559341431,222.26921945832873,0.34129028320312504,0.1293310546875,-9.796378326416017,222.2654964583271,0.001705171074718237,0.000685338512994349,0.0008661074098199606,222.26921945832873
2025-10-03 16:08:32.617563,0.3412744226306677,0.13121996115893125,-9.803184485435485,222.418175458326,-0.0025288476794958115,0.002152698123827577,0.00695584774017334,222.418175458326,0.3391946411132813,0.1287322998046875,-9.801617431640626,222.41445245832801,0.0017170538194477558,0.00027706229593604803,0.001644748728722334,222.418175458326
2025-10-03 16:08:32.752186,0.3405802119523287,0.13102409770712256,-9.803210213184357,222.55719945832607,0.0032547429576516153,-0.0018427408766001465,0.011173444390296937,222.55719945832607,0.34323623657226565,0.13112731933593752,-9.79278579711914,222.55347645832808,0.00016744574531912804,-0.00038109204615466297,-0.0031449045054614544,222.55719945832607
2025-10-03 16:08:32.894716,0.3406530463322997,0.1313113056309521,-9.803204365968705,222.69622445832647,0.002732842415571213,-0.003926204312592745,0.015657674074172973,222.69622445832647,0.34368530273437503,0.12633728027343752,-9.785451049804688,222.69250145832848,0.000835138838738203,-0.0018320060335099697,-0.0007667411118745804,222.69622445832647
2025-10-03 16:08:33.036534,0.3409878725185991,0.1315886555146426,-9.803187409043312,222.83524945832687,-0.0028411255404353145,-0.005700477948412299,0.0008232879638671876,222.83524945832687,0.33979339599609376,0.12783416748046875,-9.79892303466797,222.83152645832888,-0.0014493216294795275,0.0011298602912575006,0.0007987385615706444,222.83524945832687
2025-10-03 16:08:33.164224,0.3406596975401044,0.13165191507898272,-9.803199103474617,222.96434345832677,0.0006305856630206109,-0.0033686905726790428,0.016700817346572878,222.96434345832677,0.33545242309570317,0.12828323364257813,-9.787097625732422,222.96062045832878,0.0023906328715384007,0.00018385102157481015,-0.0015713013708591461,222.96434345832677
2025-10-03 16:08:33.293048,0.3407673228532076,0.13097918378189208,-9.80320728957653,223.0934377916601,-0.004566383063793183,-0.00494125354103744,0.003084990978240967,223.0934377916601,0.33560211181640626,0.12109817504882812,-9.797725524902344,223.08971479166212,-0.0012888433411717415,0.001699847518466413,-0.0030650077387690544,223.0934377916601
2025-10-03 16:08:33.431530,0.34012054771184924,0.13078723065555095,-9.803231847882271,223.2324627916605,-0.001823965832591057,-0.00010895007289946079,0.0014629733562469484,223.2324627916605,0.33560211181640626,0.13007949829101564,-9.800569610595703,223.22873979166252,0.0009962618350982666,-0.00023882323876023293,-0.000991716980934143,223.2324627916605
2025-10-03 16:08:33.569430,0.34034303426742557,0.13038512494415044,-9.803228924274444,223.3714877916609,-0.01072843473404646,-0.001952175172045827,0.006999117136001588,223.3714877916609,0.33440460205078126,0.1299298095703125,-9.795180816650392,223.36776479165928,0.001573882531374693,0.002083854516968131,-0.0022523589432239532,223.3714877916609
2025-10-03 16:08:33.695726,0.34002626135945324,0.13010259479284286,-9.803242372870447,223.5005817916608,-0.0021788552775979042,-0.003465937077999115,0.006864046454429627,223.5005817916608,0.3393443298339844,0.12948074340820312,-9.793234863281251,223.49685879165918,0.0028517767786979675,-0.00032870922586880624,0.0001072627492249012,223.5005817916608
2025-10-03 16:08:33.818981,0.340553387850523,0.1290672173537314,-9.803238279819489,223.61974579166053,-0.0013587467372417452,0.0008626013528555632,-0.0013729262351989747,223.61974579166053,0.33829650878906253,0.12618759155273437,-9.806108093261718,223.61602279166254,0.0016793529503047466,-0.0010799056617543101,0.0010017845779657364,223.61974579166053
2025-10-03 16:08:33.942025,0.3409195331856609,0.12902942058630287,-9.803222492337227,223.74884079166077,-0.0009765215590596199,-0.0028418564423918725,0.0038533151149749757,223.74884079166077,0.3381468200683594,0.12903167724609377,-9.801617431640626,223.74511779165914,-0.0009171743877232075,-0.0006406066822819412,-0.00019671209156513214,223.74884079166077
2025-10-03 16:08:34.076689,0.3408802837505937,0.12887006568722428,-9.803228339552879,223.87793479166066,-0.0031825663894414903,0.006897594854235649,0.013137524127960206,223.87793479166066,0.33440460205078126,0.1327738952636719,-9.791438598632814,223.87421179165904,0.0010589309968054295,-0.0006695499178022146,0.0024050776846706867,223.87793479166066
2025-10-03 16:08:34.221690,0.3409599886089564,0.12911162878386678,-9.803220153450967,224.0268900416595,0.005419638007879257,-0.0020259323157370093,0.01492794156074524,224.0268900416595,0.3435356140136719,0.12499008178710938,-9.788744201660156,224.0231670416615,0.00042954832315444946,0.00039535952964797616,0.0008086762391030788,224.0268900416595
2025-10-03 16:08:34.365302,0.3408901143819094,0.12982599408365786,-9.80321606040001,224.15598504165973,-0.00019858606159687043,-0.001842128746211529,0.006238979101181031,224.15598504165973,0.34218841552734375,0.1335223388671875,-9.796977081298829,224.1621920416619,-0.0011137165129184723,-3.65871237590909e-05,-0.00047092605382204056,224.15598504165973
2025-10-03 16:08:34.509370,0.3402528775110841,0.13056117181666196,-9.80322950899601,224.3049400416603,-0.00285450104624033,0.002362412167713046,0.015233166217803957,224.3049400416603,0.33859588623046877,0.13412109375,-9.790241088867187,224.3012170416623,-0.0008059404790401459,-0.0007269674679264426,0.001023732591420412,224.3049400416603
2025-10-03 16:08:34.650590,0.34043246012181044,0.13044493099674584,-9.803224246501923,224.45389504166087,-0.004680659584701061,0.0011314545013010502,0.0026546359062194825,224.45389504166087,0.33260833740234375,0.12918136596679688,-9.799372100830078,224.45017204165924,-0.0017267987132072449,0.001982372021302581,0.00037000514566898346,224.45389504166087
2025-10-03 16:08:34.772952,0.3405223976075649,0.1304959022719413,-9.803221322894096,224.5730590416606,-0.0026748818904161454,-0.0038592171482741836,0.00953563928604126,224.5730590416606,0.33709899902343754,0.13127700805664064,-9.79128890991211,224.5693360416626,0.0020699421875178814,0.0009126518270932138,0.0018549365922808647,224.5730590416606
2025-10-03 16:08:34.905497,0.3406670431047678,0.1305042710993439,-9.803213136792184,224.70215404166083,0.00017413739114999772,0.0007727186847478151,0.012075669765472414,224.70215404166083,0.33859588623046877,0.13397140502929689,-9.787546691894532,224.6984310416592,0.0016105249524116516,0.002966337837278843,-0.0008322256617248058,224.70215404166083
2025-10-03 16:08:35.048367,0.34050379615277054,0.13054240590892732,-9.803222492337227,224.8511090416614,-0.0029556578770279884,-0.0033069659024477006,0.025103266239166262,224.8511090416614,0.3393443298339844,0.12499008178710938,-9.778715057373047,224.84738604165977,-1.2755393981933594e-05,-0.0007698367116972804,0.0008818211499601603,224.8511090416614
2025-10-03 16:08:35.172205,0.34062914583832027,0.13079114098101854,-9.803211967349053,224.9802030416613,-0.00936800692230463,-0.0044538698438555,0.013420529365539552,224.9802030416613,0.3296145629882813,0.12963043212890626,-9.78560073852539,224.97648004165967,-0.0010147676803171635,-0.0018229881534352899,-0.002078948076814413,224.9802030416613
2025-10-03 16:08:35.310711,0.3403204859420657,0.13065516580827535,-9.803223077058792,225.0993672916593,-0.004269381053745747,-0.004766979105770588,0.004301796555519104,225.0993672916593,0.3339555358886719,0.12963043212890626,-9.799821166992189,225.0956442916613,-0.0007520834915339947,-0.001369778299704194,-0.00013636983931064606,225.0993672916593
2025-10-03 16:08:35.458044,0.3409616696834564,0.13044061867520212,-9.803206704854965,225.25825229166003,-0.00371290884912014,-0.00045137763954699044,0.0158073627948761,225.25825229166003,0.3396437072753906,0.12528945922851564,-9.78889389038086,225.25452929166204,-0.0033592870458960533,-0.000542877649422735,0.0011833419557660818,225.25825229166003
2025-10-03 16:08:35.593739,0.34043805152177814,0.13017258779145777,-9.803228924274444,225.4072072916606,-0.007979329749941826,0.0006553815118968487,0.011787986755371094,225.4072072916606,0.3333567810058594,0.12963043212890626,-9.792935485839845,225.4034842916626,-0.0004299897700548172,0.002128225052729249,0.0007680850103497505,225.4072072916606
2025-10-03 16:08:35.742231,0.34067373085767033,0.1304204731900245,-9.803217814564706,225.546232291661,-0.0038740361854434015,0.002952213501557708,0.01222652792930603,225.546232291661,0.3418890380859375,0.13516891479492188,-9.795330505371094,225.54250929165937,-0.0020321740303188562,0.0012594506843015552,-0.0008264090865850449,225.546232291661
2025-10-03 16:08:35.867315,0.34070011641830206,0.1297422692645341,-9.803225415945054,225.67532729166123,-0.0022538823634386065,-0.0074465661775320775,0.005648410320281983,225.67532729166123,0.3373983764648438,0.11795471191406251,-9.794582061767578,225.6716042916596,0.0015785028226673603,6.592081626877189e-05,0.0007695090025663376,225.67532729166123
2025-10-03 16:08:36.003296,0.3403906525298953,0.1297115896549076,-9.803233017325402,225.80442129166113,-0.003740756213665009,-0.004272459978237749,0.007904266119003297,225.80442129166113,0.33440460205078126,0.12469070434570313,-9.79368392944336,225.8006982916595,0.0028072581626474857,-0.001462491462007165,-0.001162707805633545,225.80442129166113
2025-10-03 16:08:36.135096,0.33989382192492484,0.130214057341218,-9.803247050642968,225.93351629166136,-0.002345720194280148,0.0006139119621366263,0.01405202865600586,225.93351629166136,0.3396437072753906,0.13367202758789062,-9.788744201660156,225.92979329165973,-0.0003046533092856407,-0.0010065562091767788,0.0018367702141404152,225.93351629166136
2025-10-03 16:08:36.264936,0.3392462793365121,0.13040358021855356,-9.80326634645462,226.07254179166193,-5.160167813301087e-05,0.004915041569620371,0.0011986792087554932,226.07254179166193,0.33904495239257815,0.1387614440917969,-9.800719299316407,226.0688187916603,0.0006904136389493942,0.0010997022036463022,0.00044767744839191437,226.07254179166193
2025-10-03 16:08:36.400084,0.33975005351006987,0.1305867533851415,-9.803247050642968,226.20163579166183,-0.0047466600313782695,9.15089249610901e-05,0.011207942962646485,226.20163579166183,0.3339555358886719,0.12828323364257813,-9.797426147460937,226.1979127916602,0.0008530556224286556,0.0008674979908391833,-0.0011324346996843815,226.20163579166183
2025-10-03 16:08:36.902650,0.3394094166532159,0.13060595783405007,-9.803258160352707,226.34066079166223,-0.0005141164362430573,0.0011201346572488548,0.000891115665435791,226.34066079166223,0.33829650878906253,0.13082794189453126,-9.806257781982422,226.3369377916606,0.00024725403636693954,-0.0014726815279573202,0.002687128260731697,226.34066079166223
2025-10-03 16:08:37.100241,0.3389871745929122,0.1296793934237212,-9.80328622698784,226.8967607916602,0.0017044268175959588,0.0006995097175240517,0.0018161451816558838,226.8967607916602,0.3393443298339844,0.12978012084960938,-9.804760894775391,226.8930377916622,-0.001161589752882719,-0.0009681637166067958,0.0012284761760383844,226.8967607916602
2025-10-03 16:08:37.249057,0.33865370057523253,0.12920753225684167,-9.803300845026971,227.0457155416625,0.0035346784070134163,0.004464477058500052,0.004977149963378906,227.0457155416625,0.3405418395996094,0.13322296142578124,-9.797875213623048,227.04199254166087,0.0017715482972562313,0.0002583932364359498,0.00028688786551356316,227.0457155416625
2025-10-03 16:08:37.371396,0.3387010264769197,0.12917074047960342,-9.803299090862275,227.1748105416591,0.0004935780912637711,-0.0017856574337929488,0.006472867727279664,227.1748105416591,0.3342549133300781,0.1273851013183594,-9.795031127929688,227.1710875416611,0.0007454031147062778,-0.00020720227621495724,0.00020432518795132637,227.1748105416591
2025-10-03 16:08:37.506266,0.3390172877535224,0.12929586175829172,-9.803287396430969,227.30390454166263,-0.004612722247838974,0.0007836182601749898,0.00780778706073761,227.30390454166263,0.33126113891601566,0.128133544921875,-9.79173797607422,227.300181541661,-0.0015162837225943804,3.575062146410346e-05,0.0023497813381254673,227.30390454166263
2025-10-03 16:08:37.641417,0.3385532381013036,0.12936024508439006,-9.803300845026971,227.4429295416594,-0.0035499542579054836,-0.0013764162920415401,0.012912406325340272,227.4429295416594,0.33799713134765624,0.12918136596679688,-9.78889389038086,227.4392065416614,-0.0005039009265601635,8.827541023492813e-05,-0.0001629856415092945,227.4429295416594
2025-10-03 16:08:37.772547,0.33793281197547914,0.12886380733922126,-9.803330081105234,227.57202454165963,-0.008467937707901002,-0.0052209149021655325,0.013838020563125612,227.57202454165963,0.33215927124023437,0.12469070434570313,-9.78694793701172,227.56830154166164,0.0028619198128581047,-0.0007023832877166569,-0.0013363221660256386,227.57202454165963
2025-10-03 16:08:37.903474,0.33825364138931036,0.12836158633232117,-9.803329496383668,227.70111854165953,0.003186403624713421,0.002466373834758997,0.007248208522796631,227.70111854165953,0.3369493103027344,0.13037887573242188,-9.79128890991211,227.69739554166154,-0.0013191848993301392,-0.00028465985087677836,0.0018958020955324173,227.70111854165953
2025-10-03 16:08:38.038811,0.3385240751132369,0.12797376975417138,-9.803322479724885,227.84014354165993,-0.0006766324862837792,0.008542343527078628,0.014278900623321534,227.84014354165993,0.33784744262695315,0.13397140502929689,-9.790690155029298,227.83642054166194,-0.0016933309379965067,0.0004923627129755914,-0.0006717429496347904,227.84014354165993
2025-10-03 16:08:38.170200,0.33847411796450616,0.1284946470335126,-9.803318386673928,227.96923854166016,-0.005566403120756149,0.0032314271852374077,0.015322043895721437,227.96923854166016,0.33664993286132816,0.13412109375,-9.787846069335938,227.96551554166217,6.106588989496231e-05,-0.0013985212426632643,-0.0019285017624497414,227.96923854166016
2025-10-03 16:08:38.300735,0.33816209591925145,0.12815850522369146,-9.803332419991493,228.10826416666168,0.0061219982430338864,0.0013222564570605755,0.009947283267974854,228.10826416666168,0.3430865478515625,0.12499008178710938,-9.79413299560547,228.10454116666006,0.0026766308583319187,0.0005916313966736197,0.0011673355475068092,228.10826416666168
2025-10-03 16:08:38.450465,0.3376759364828468,0.12787618520669639,-9.803349961638451,228.24728816666175,0.004512405954301357,0.005945512829348445,0.00457953929901123,228.24728816666175,0.3405418395996094,0.13082794189453126,-9.797276458740235,228.24356516666012,0.001722095999866724,0.0002229030360467732,-0.0009392555803060532,228.24728816666175
2025-10-03 16:08:38.581244,0.33755398549139504,0.128306942274794,-9.803351131081582,228.37638316666198,0.0023890626803040505,-0.0034665583446621896,0.007571559548377991,228.37638316666198,0.3400927734375,0.1251397705078125,-9.792037353515626,228.37266016666035,0.0003906581550836563,0.0004454049048945308,0.00021626800298690796,228.37638316666198
2025-10-03 16:08:38.719780,0.33755665328353646,0.12831389497965576,-9.803352300524713,228.52533816666255,-0.0043495244532823565,0.0023643764667212962,0.012212494611740113,228.52533816666255,0.3396437072753906,0.13262420654296875,-9.786349182128907,228.52161516666092,-0.0012206295505166054,-1.3805285561829805e-05,-0.0006786463782191277,228.52533816666255
2025-10-03 16:08:38.850533,0.33699762292206287,0.1283440995030105,-9.80336984217167,228.65443316665915,0.0026460478082299234,0.0041304000467062,0.010134978890419007,228.65443316665915,0.34024246215820314,0.13112731933593752,-9.796677703857423,228.65071016666116,-0.0002561849541962147,-0.001098159234970808,-7.928954437375069e-05,228.65443316665915
2025-10-03 16:08:39.002562,0.3367909238487482,0.1282152232155204,-9.803379197716714,228.79345816665955,0.002254065088927746,0.001714613763615489,0.00670090913772583,228.79345816665955,0.3400927734375,0.12903167724609377,-9.791887664794922,228.78973516666156,0.0014087739400565624,-0.0018951806705445051,-0.0009935367852449417,228.79345816665955
2025-10-03 16:08:39.133739,0.3367080395668745,0.12810754308477046,-9.80338329076767,228.94241316666012,-0.0009562390297651292,0.003019776251167059,0.005957143306732178,228.94241316666012,0.3373983764648438,0.13262420654296875,-9.797725524902344,228.93869016666213,-0.0009300867095589638,-0.00129587366245687,-0.0003506997600197792,228.94241316666012
2025-10-03 16:08:39.279918,0.33664024841040374,0.12748334367759526,-9.803392061591149,229.08143783332707,-0.0005891435220837593,0.0016980040166527034,-0.0012179750204086303,229.08143783332707,0.335302734375,0.12663665771484375,-9.802665252685548,229.07771483332908,0.0021182713098824024,0.00027624343056231737,0.0002738051116466522,229.08143783332707
2025-10-03 16:08:39.400871,0.3371554611995816,0.12754568961448967,-9.803373935222627,229.2105328333273,0.007278248593211175,-0.0036034380085766316,0.010589307546615601,229.2105328333273,0.3480262756347656,0.12963043212890626,-9.795929260253907,229.20680983332932,-0.002232401631772518,-0.0008415623451583087,0.000257016159594059,229.2105328333273
2025-10-03 16:08:39.524684,0.33789118710905314,0.12723465428687633,-9.803354054689407,229.32969683332703,-0.005731915868818761,-0.0001489395461976528,0.003233510255813599,229.32969683332703,0.33185989379882813,0.13142669677734375,-9.803563385009767,229.32597383332904,-9.823869913816452e-05,0.0003313340130262077,0.0005582664161920547,229.32969683332703
2025-10-03 16:08:39.650771,0.3382160730287433,0.12690281566232445,-9.803345283865928,229.45879183332727,-0.004110921509563923,-0.0025115070305764676,0.005171862244606019,229.45879183332727,0.3330574035644531,0.1239422607421875,-9.795779571533204,229.45506883332928,-0.0007246355526149273,0.0018876682734116912,0.0007798753213137388,229.45879183332727
2025-10-03 16:08:39.783568,0.33777153845876456,0.1265314626507461,-9.80336984217167,229.58788583332716,0.0003753912448883057,-0.0004935141373425722,0.016418981552124023,229.58788583332716,0.3384461975097656,0.1287322998046875,-9.78455291748047,229.58416283332917,0.00017619086429476738,-0.0010453390423208475,-0.0014275405555963516,229.58788583332716
2025-10-03 16:08:39.909079,0.3375360418483615,0.12673823481425645,-9.803373935222627,229.7169808333274,-0.006125177666544915,0.01112509522587061,0.004898797273635865,229.7169808333274,0.3345542907714844,0.13546829223632814,-9.793234863281251,229.71325783332577,0.0009269192814826965,-0.0006973143317736685,-0.002148980274796486,229.7169808333274
2025-10-03 16:08:40.049061,0.3373969512060285,0.12606336562894285,-9.8033844602108,229.8460748333273,-0.004040206745266914,0.003267661649733782,0.004013528823852539,229.8460748333273,0.3335064697265625,0.13112731933593752,-9.79892303466797,229.8423518333293,-0.000554076861590147,-0.0007478430634364486,-0.001212223432958126,229.8460748333273
2025-10-03 16:08:40.189727,0.3375321315228939,0.12529877822846175,-9.803389137983322,229.9950308333282,-0.0004332055896520615,0.008672599392011763,0.008808830380439758,229.9950308333282,0.33679962158203125,0.13022918701171876,-9.789792022705079,229.99130783332657,-9.901495650410652e-05,-0.0010953386081382632,0.0015853710938245058,229.9950308333282
2025-10-03 16:08:40.312880,0.33755508184432986,0.12494534145109357,-9.803392061591149,230.11419458332603,0.0035854030027985574,0.01022354593500495,0.01779366195201874,230.11419458332603,0.34129028320312504,0.13666580200195313,-9.785900115966797,230.11047158332804,0.002579193562269211,0.0026166350580751896,-0.00013414211571216583,230.11419458332603
2025-10-03 16:08:40.439126,0.3379272936657071,0.12512053865008058,-9.803377443552018,230.24328958332626,0.003961671330034733,0.008401772808283569,0.01463558077812195,230.24328958332626,0.34623001098632816,0.13322296142578124,-9.790091400146485,230.23956658332827,-0.0011013108305633068,0.0006947442889213562,-0.000786398071795702,230.24328958332626
2025-10-03 16:08:40.572533,0.33780399050563575,0.12517792358994484,-9.80338329076767,230.37238358332615,-0.0032496997341513634,-0.006474768072366715,0.006705586910247803,230.37238358332615,0.3384461975097656,0.12304412841796876,-9.794282684326172,230.36866058332816,0.0016314578242599964,0.0018694669706746936,8.35806131362915e-05,230.37238358332615
2025-10-03 16:08:40.705300,0.3375968163460493,0.1251566726155579,-9.803390892148018,230.51140858332656,0.0035437781363725665,0.007467524791136384,0.01674174785614014,230.51140858332656,0.3351530456542969,0.12648696899414064,-9.79128890991211,230.50768558332857,-0.002424644771963358,0.0008243944030255079,-0.0004834434948861599,230.51140858332656
2025-10-03 16:08:40.853203,0.3373320471122861,0.1255215571448207,-9.803398493528366,230.66036358332713,6.643898785114289e-05,0.0032107883412390947,0.007016658782958984,230.66036358332713,0.3393443298339844,0.12588821411132814,-9.797426147460937,230.65664058332914,0.0004336787387728691,-0.0002616833371575922,-0.00014401506632566452,230.66036358332713
2025-10-03 16:08:40.982400,0.33776287727057935,0.1256939312350005,-9.80337978243828,230.78945858332736,0.00412619736045599,-0.0027994824014604095,0.017628185749053955,230.78945858332736,0.348475341796875,0.1251397705078125,-9.793234863281251,230.78573558332573,0.0024581942707300186,0.0042902203276753426,0.001549484208226204,230.78945858332736
2025-10-03 16:08:41.109175,0.3374776062369347,0.12603665116243065,-9.803381536602975,230.9086225833271,0.0020163392275571825,-0.000298162316903472,0.016285665035247802,230.9086225833271,0.33679962158203125,0.12708572387695313,-9.785900115966797,230.9048995833291,-0.000983592588454485,-0.001762648462317884,-0.0010231081396341324,230.9086225833271
2025-10-03 16:08:41.239318,0.33737904410809283,0.1264174054004252,-9.8033844602108,231.0476471666625,0.00046847160905599594,-0.001876353230327368,0.00760254979133606,231.0476471666625,0.34129028320312504,0.1251397705078125,-9.79802490234375,231.04392416666087,-0.0012714536860585213,0.00035170299815945327,-0.0005244514904916286,231.0476471666625
2025-10-03 16:08:41.373662,0.3373794461041689,0.12658078026026487,-9.80338095188141,231.1767421666591,-0.002825118787586689,-0.0012913118954747916,0.010294607877731324,231.1767421666591,0.33635055541992187,0.12229568481445313,-9.80236587524414,231.1730191666611,-0.0004969281144440174,0.0010146618587896228,-0.0012388755567371845,231.1767421666591
2025-10-03 16:08:41.507108,0.3370715902000666,0.12631925440393388,-9.803392061591149,231.30583716665933,0.0037695537507534027,0.0001676780451089144,0.012553972005844117,231.30583716665933,0.34024246215820314,0.12963043212890626,-9.796528015136719,231.30211416666134,-2.332497388124466e-05,0.0006755110807716846,0.0012075265403836966,231.30583716665933
2025-10-03 16:08:41.638799,0.3368599209934473,0.12676288448274137,-9.803392646312714,231.44486216665973,0.0014365147054195406,0.002119067497551441,0.0023763084411621096,231.44486216665973,0.3359014892578125,0.1251397705078125,-9.803713073730469,231.44113916666174,0.0039583295583724976,0.0005987415788695216,-0.0002869642339646816,231.44486216665973
2025-10-03 16:08:41.778411,0.3365146429091692,0.1270692968554795,-9.803401417136193,231.58388716666013,0.004476189762353897,0.0024114100076258185,0.013910526037216188,231.58388716666013,0.34173934936523437,0.13217514038085937,-9.795929260253907,231.58016416666214,-0.0003612237051129341,-0.00013327435590326786,-0.0015873666852712631,231.58388716666013
2025-10-03 16:08:41.906781,0.3360175199434161,0.12704337724484505,-9.803422467112542,231.70305116665986,-0.006103542968630791,-0.0017538997437804937,0.003449857234954834,231.70305116665986,0.32781829833984377,0.12349319458007812,-9.801467742919922,231.69932816666187,-0.00042084651067852974,0.0017039405647665262,0.0011976619716733694,231.70305116665986
2025-10-03 16:08:42.041789,0.33599858958274126,0.1271102547738701,-9.803419543504715,231.84207616666026,-0.0042884210497140885,-0.0030183235835283995,0.012879661917686464,231.84207616666026,0.3330574035644531,0.12588821411132814,-9.788744201660156,231.83835316666227,0.0005101119168102741,0.001283744815737009,-0.0006717857904732227,231.84207616666026
2025-10-03 16:08:42.166924,0.336195933111012,0.1272243577055633,-9.803410772681238,231.9711711666605,-0.002240433767437935,0.0003104323334991932,0.015116806626319887,231.9711711666605,0.336500244140625,0.12783416748046875,-9.79083984375,231.9674481666625,0.002158933784812689,-0.0003338485839776695,0.0019203496631234884,231.9711711666605
2025-10-03 16:08:42.285716,0.33652684897184376,0.1272700390778482,-9.80340317130089,232.09033608332902,0.00027288224548101427,-0.008417149158194661,0.011212620735168457,232.09033608332902,0.33560211181640626,0.12184661865234375,-9.798174591064454,232.0866130833274,-0.00038096820935606956,-0.0008988871122710407,-0.0006375079974532127,232.09033608332902
2025-10-03 16:08:42.420490,0.3362754186987877,0.1273949959035963,-9.803404340744018,232.21943108332925,-0.006660965345799923,-0.001656516194343567,0.006579871773719788,232.21943108332925,0.3351530456542969,0.12499008178710938,-9.799222412109376,232.21570808332763,0.00257024634629488,-0.00011387121048755944,9.867828339338303e-06,232.21943108332925
2025-10-03 16:08:42.561640,0.3372452525049448,0.1271218578424305,-9.803378028273583,232.3683860833262,0.0047934743016958235,-0.0022814739122986793,0.013137524127960206,232.35845608332602,0.34024246215820314,0.12588821411132814,-9.79368392944336,232.3646630833282,0.0025812042877078056,0.002244008472189307,0.0004921588115394115,232.3683860833262
2025-10-03 16:08:42.691944,0.3374825398251414,0.12681186405010522,-9.803372765779496,232.4875500833259,-0.002179841995239258,0.005063880616798997,0.010737242102622986,232.4875500833259,0.33784744262695315,0.13157638549804687,-9.795330505371094,232.48382708332792,0.0009998111054301262,-0.00029127238667570055,0.0011146084871143103,232.4875500833259
2025-10-03 16:08:42.832861,0.3374747557193041,0.12669223367236554,-9.803376274108887,232.63650608332682,0.0066596497222781185,0.0005431971978396178,0.005948957204818726,232.63650608332682,0.3438349914550781,0.12424163818359375,-9.7956298828125,232.63278308332883,0.0011821645312011242,-0.0010167043656110764,-0.0003827814944088459,232.63650608332682
2025-10-03 16:08:42.965423,0.3380274272337556,0.12658386832103133,-9.8033575630188,232.77553108332722,-0.005868155993521214,-0.001743475254625082,0.015062427520751953,232.77553108332722,0.3342549133300781,0.12244537353515626,-9.792037353515626,232.77180808332923,0.0026225270703434944,0.0005195832345634699,-0.001334852073341608,232.77553108332722
2025-10-03 16:08:43.103173,0.3385970922186971,0.12677086958661676,-9.803336513042451,232.90462508332712,-0.0037433509156107906,-0.002229835689067841,0.015638962984085084,232.90462508332712,0.3309617614746094,0.12244537353515626,-9.787247314453126,232.90090208332913,-0.0018088433425873518,-0.0018053563544526696,0.0019036999437958002,232.90462508332712
2025-10-03 16:08:43.234307,0.33853759679943324,0.12698760028928519,-9.803337097764016,233.03371941666046,-0.013263933621346952,0.0032416141312569383,0.006207404136657715,233.03371941666046,0.3279679870605469,0.13112731933593752,-9.796228637695313,233.02999641666247,-0.0016049309633672237,0.0026711239479482174,-0.0008079814724624157,233.03371941666046
2025-10-03 16:08:43.373540,0.3387546015903354,0.12745600794442,-9.80332189500332,233.1628144166607,-0.0013561885803937913,-7.087921723723413e-05,0.0048473417758941656,233.1628144166607,0.336500244140625,0.132923583984375,-9.79847396850586,233.15909141665907,-0.0004223901778459549,-0.001587592763826251,-0.00045465072616934776,233.1628144166607
2025-10-03 16:08:43.511338,0.3388510806486011,0.12784768003039063,-9.80331195473671,233.31176941666126,0.001990099847316742,0.002082120403647423,0.011275185942649842,233.31176941666126,0.33904495239257815,0.1293310546875,-9.791139221191406,233.30804641665964,0.0016046161763370037,-0.0024660720955580473,0.0034306098241358995,233.31176941666126
2025-10-03 16:08:43.639402,0.33865494310855865,0.12759770242497326,-9.80332306444645,233.4408644166615,-0.0042503045126795775,0.0029308803007006647,0.015177032947540284,233.4408644166615,0.3351530456542969,0.13082794189453126,-9.790390777587891,233.43714141665987,-0.0011234707199037075,0.0009848772315308452,0.0019123575184494257,233.4408644166615
2025-10-03 16:08:43.778993,0.3389362307265401,0.12775987129658462,-9.803309031128883,233.5798894166619,0.0019049497693777084,0.002020222144201398,0.002142419815063477,233.5798894166619,0.3387455749511719,0.12948074340820312,-9.799372100830078,233.57616641666027,-0.001682407222688198,-0.00025210753665305674,0.0003013084642589092,233.5798894166619
2025-10-03 16:08:43.917283,0.3394925932958722,0.12801843699999155,-9.803287396430969,233.7189144166623,0.0038932954519987108,0.002360438732430339,0.01020280659198761,233.7189144166623,0.3403921508789063,0.130528564453125,-9.791588287353516,233.71519141666067,-0.001120163593441248,0.0010982485255226493,0.0013572373427450657,233.7189144166623
2025-10-03 16:08:44.061683,0.33942253634333613,0.12859871833585204,-9.803285642266275,233.84800941666253,-0.008460665233433248,0.001929891798645258,0.010347232818603516,233.84800941666253,0.32826736450195315,0.1293310546875,-9.787696380615236,233.8442864166609,0.0005604848265647888,0.00123825971968472,-0.001408326905220747,233.84800941666253
2025-10-03 16:08:44.185874,0.33999961998313666,0.12877371453680098,-9.803258745074272,233.9870344166593,0.0014403153955936433,0.004149851175025106,0.007031861543655396,233.9870344166593,0.3400927734375,0.13322296142578124,-9.796827392578125,233.9833114166613,-0.0011217864230275154,-0.0009383218130096793,-9.463401511311531e-05,233.9870344166593
2025-10-03 16:08:44.346901,0.3401512821391225,0.12817874207161367,-9.80326400756836,234.13598954166082,-0.0032019352912902835,-0.004535849634557962,0.008381398916244507,234.13598954166082,0.33260833740234375,0.12409194946289064,-9.796677703857423,234.1322665416592,0.000887205358594656,-0.0029326763469725847,0.0003571305423974991,234.13598954166082
2025-10-03 16:08:44.477718,0.33997067626565697,0.12810322162695228,-9.803272193670272,234.28494554166173,-0.0004766211658716202,0.0010781717486679555,0.012131803035736084,234.28494554166173,0.3391946411132813,0.12528945922851564,-9.791139221191406,234.2812225416601,0.000657565426081419,0.0021389806643128395,0.0016156507190316916,234.28494554166173
2025-10-03 16:08:44.603667,0.3400887169316411,0.1278650115430355,-9.803269854784013,234.40410954166146,0.0019500098749995233,0.007154214531183243,0.010783435106277467,234.40410954166146,0.33605117797851564,0.13696517944335937,-9.794582061767578,234.40038654165983,0.0003185318782925606,0.00019317437545396388,0.0005252459086477757,234.40410954166146
2025-10-03 16:08:44.736722,0.33999739073216917,0.128271155487746,-9.803267515897751,234.5332045416617,0.0020413360744714736,-0.0026823096815496686,0.004045103788375855,234.5332045416617,0.3396437072753906,0.12828323364257813,-9.798174591064454,234.52948154166006,-0.0020073477644473314,0.0010177860967814922,-1.287972554564476e-05,234.5332045416617
2025-10-03 16:08:44.861446,0.3402695420756936,0.12804032751359046,-9.803262253403664,234.66229954166192,0.0017692212760448457,-0.0015533402469009162,0.007181550264358521,234.66229954166192,0.3418890380859375,0.13142669677734375,-9.79997085571289,234.6585765416603,-0.0013137580826878548,2.5198387447744608e-05,0.00018265843391418457,234.66229954166192
2025-10-03 16:08:44.991457,0.34036437660455704,0.1278391741588712,-9.803260499238968,234.80132454166232,-0.0013194242119789123,0.005832862565293908,0.003738709688186646,234.80132454166232,0.33260833740234375,0.13666580200195313,-9.79368392944336,234.7976015416607,0.0006693894974887371,0.0010622907429933548,-9.054550901055336e-05,234.80132454166232
2025-10-03 16:08:45.121262,0.3402375285699964,0.12780968226492406,-9.80326400756836,234.93041854166222,-0.003138529546558857,-0.0022208547312766317,0.0025458776950836185,234.93041854166222,0.335302734375,0.1251397705078125,-9.802216186523438,234.9266955416606,0.0015238067135214806,0.0007999347290024161,-0.0013231439515948296,234.93041854166222
2025-10-03 16:08:45.257731,0.34063396979123356,0.12771423560567202,-9.803251143693924,235.05951366665977,-0.008923801258206368,0.008203113656491042,0.006574609279632568,235.05951366665977,0.3327580261230469,0.1293310546875,-9.793085174560547,235.05579066666178,-0.0004977486096322536,-0.00013083108933642507,-0.0008845808915793896,235.05951366665977
2025-10-03 16:08:45.397588,0.3407877150177956,0.1272860732395202,-9.803254652023316,235.18860866666,-0.002940199300646782,0.0009971878118813038,0.0020839476585388186,235.18860866666,0.33829650878906253,0.12843292236328124,-9.797575836181641,235.184885666662,-0.002204649616032839,-0.0019820979796350002,0.002266591414809227,235.18860866666
2025-10-03 16:08:45.527953,0.3402197311073542,0.1277004306949675,-9.80326634645462,235.3276336666604,-0.011353648267686367,0.0028281246218830347,0.009583001732826233,235.3276336666604,0.33410522460937503,0.13112731933593752,-9.798174591064454,235.3239106666624,0.00039149029180407524,-0.0017740778857842088,0.0018987937364727259,235.3276336666604
2025-10-03 16:08:45.667837,0.34028792425990106,0.12791127763688565,-9.803263422846795,235.4666586666608,-0.006781417988240719,0.0069582779891788965,0.02020563840866089,235.4666586666608,0.33365615844726565,0.13576766967773438,-9.782606964111329,235.46293566665918,0.002602413296699524,0.0005454567726701498,-0.0018885689787566662,235.4666586666608
2025-10-03 16:08:45.806566,0.3407340668141842,0.12758646480739116,-9.803250558972358,235.6056836666612,-0.004084133952856064,0.00713339296169579,0.0037293541431427,235.6056836666612,0.3394940185546875,0.13726455688476563,-9.79802490234375,235.60196066665958,0.000131937675178051,0.000337976380251348,0.0002843085676431656,235.6056836666612
2025-10-03 16:08:45.942983,0.3405844146385789,0.12783097892068326,-9.80325289785862,235.7447086666616,-0.005880398601293564,-0.007780615780502558,0.0073230528831481935,235.7447086666616,0.33635055541992187,0.118553466796875,-9.794432373046876,235.74098566665998,-0.001115581952035427,0.002169565297663212,-0.0009988783858716488,235.7447086666616
2025-10-03 16:08:46.085836,0.3400465073436499,0.12761027393862606,-9.803273363113403,235.88373466666235,0.004387202449142933,0.0045648481696844104,0.01617690682411194,235.88373466666235,0.3394940185546875,0.13696517944335937,-9.789342956542969,235.88001166666072,-0.0025350989308208227,0.0001440383493900299,0.0016337726265192032,235.88373466666235
2025-10-03 16:08:46.233879,0.34002311848104,0.12668180918321015,-9.80328505754471,236.03268966665928,-0.002924192547798157,-0.008427728964015842,0.006609107851982117,236.03268966665928,0.3335064697265625,0.12214599609375,-9.794282684326172,236.0289666666613,0.0015195822343230247,-0.0004518205241765827,-0.00019999220967292786,236.03268966665928
2025-10-03 16:08:46.363732,0.340122923143208,0.12676932555623352,-9.803284472823144,236.17171466665968,0.0046102737262845046,0.0016636242158710958,0.004359683990478516,236.17171466665968,0.3465293884277344,0.1279838562011719,-9.799072723388672,236.1679916666617,-0.0010440177284181118,0.00012028304627165198,9.275274351239204e-05,236.17171466665968
2025-10-03 16:08:46.493254,0.340071540735662,0.12758184185251595,-9.803273947834969,236.30080966665992,-0.0031222669780254365,0.0014498262573033572,0.006745932698249817,236.30080966665992,0.33784744262695315,0.1299298095703125,-9.797575836181641,236.29708666666193,-0.0006290934979915619,0.000338759709848091,0.0008227797225117683,236.30080966665992
2025-10-03 16:08:46.620585,0.33434017304331065,0.13007611786946655,-9.803436500430108,236.41997366665964,0.05080883223563433,-0.768947596102953,-0.24486618876457217,236.41997366665964,0.4240681457519532,-0.5478607177734375,-9.8339501953125,236.41625066666165,0.006731195840984583,-0.017467698082327843,-0.0337558314204216,236.41997366665964
2025-10-03 16:08:46.749586,0.31095554966479544,0.12308039942756296,-9.80429604113102,236.54906866665988,0.06640967868268491,0.3687967185303569,0.1935334825515747,236.54906866665988,0.4453239440917969,0.45146118164062504,-9.667945404052736,236.5453456666619,0.002970927394926548,-0.026966720819473267,-0.007725795265287161,236.54906866665988
2025-10-03 16:08:46.868766,0.2994246576726437,0.11782021681778133,-9.80472405731678,236.6781636666601,0.050847021862864494,0.38737924296408893,0.14560853362083437,236.6781636666601,0.2950364685058594,0.5069956970214844,-9.753866729736329,236.67444066666212,-0.008807254955172539,-0.00738815451040864,0.0009741350077092648,236.6781636666601
2025-10-03 16:08:47.002882,0.28981678700074553,0.11838307527825237,-9.805002969503404,236.80725866666035,0.1104508338868618,0.4676482480019331,0.0036855000257492066,236.80725866666035,0.365240478515625,0.5876779174804688,-9.799521789550782,236.80353566666236,-0.011792575940489769,-0.029524212703108788,0.0025679992977529764,236.80725866666035
2025-10-03 16:08:47.132555,0.2787530692666769,0.11597256976179779,-9.805353802442552,236.93635366666058,-0.01574995044618845,0.35614568274468184,-0.015424954891204835,236.93635366666058,0.267044677734375,0.4800517272949219,-9.829908599853516,236.9326306666626,0.0007900209166109562,-0.00778180779889226,-0.0004523438401520252,236.93635366666058
2025-10-03 16:08:47.257721,0.2742136199399829,0.11545973240397871,-9.805485364794732,237.05551783332703,-0.02393411546945572,0.4674281368777156,0.013449765443801881,237.05551783332703,0.25147705078125,0.5791456604003906,-9.785001983642578,237.05179483332904,0.0008289827965199947,0.002066381275653839,-0.0033327145501971245,237.05551783332703
2025-10-03 16:08:47.374494,0.2767449344135821,0.11645182217471302,-9.805405257940293,237.18461283332726,-0.003413293864578009,-0.07229363129474223,-0.00384746789932251,237.18461283332726,0.26689498901367187,0.03113525390625,-9.805060272216798,237.18088983332927,-0.0018872111104428768,0.0022241869010031223,-0.0014535188674926758,237.18461283332726
2025-10-03 16:08:47.499598,0.2781931070052087,0.11646139699034394,-9.805366666316987,237.30377783332733,-0.005011100359261036,-0.15463199336081743,0.00599105715751648,237.30377783332733,0.27797195434570315,-0.033679962158203125,-9.80805404663086,237.3000548333257,-0.0030993956606835127,-0.00017996813403442502,0.001446354202926159,237.30377783332733
2025-10-03 16:08:47.632259,0.2775060226209462,0.11701983349397779,-9.805373098254204,237.43287183332723,0.0024117937311530116,0.07188728635199368,0.01273991346359253,237.43287183332723,0.2763253784179688,0.18052459716796876,-9.79997085571289,237.42914883332924,-0.0005748849362134933,-0.0003676877240650356,-0.002142316661775112,237.43287183332723
2025-10-03 16:08:47.759262,0.27713519951328636,0.11728223643265666,-9.80538596212864,237.56196683332746,-0.003953211139887572,-0.016092633828520775,0.00945377826690674,237.56196683332746,0.27572662353515626,0.10343490600585938,-9.792336730957032,237.55824383332583,0.0014108531177043915,-0.0028988781850785017,0.0014433222822844982,237.56196683332746
2025-10-03 16:08:47.885534,0.2769224522262812,0.11749822709709407,-9.80538596212864,237.6910618333277,-0.0022436862811446192,-0.021547766262665392,0.005415691137313843,237.6910618333277,0.27393035888671874,0.09430389404296875,-9.798324279785156,237.68733883332607,-0.0005697049200534821,-0.00042388367000967264,0.0003899731673300266,237.6910618333277
2025-10-03 16:08:48.017590,0.2769414191320539,0.11785355508327484,-9.805384792685508,237.82015683332793,0.0005815604142844677,-0.0027428831811994315,0.00241723895072937,237.82015683332793,0.2794688415527344,0.11361373901367187,-9.79997085571289,237.8164338333263,-0.0009037097916007042,-0.00030427437741309404,-0.0021172999404370785,237.82015683332793
2025-10-03 16:08:48.153719,0.27615604670718313,0.11761537240818143,-9.805404088497163,237.95918183332833,0.007503987662494183,0.0021355676092207434,0.0004964286088943482,237.95918183332833,0.28021728515625,0.11780502319335938,-9.79847396850586,237.9554588333267,-0.002224367344751954,-0.00023470964515581727,-0.0014503230340778828,237.95918183332833
2025-10-03 16:08:48.286536,0.27653057914227247,0.11743995593860745,-9.80539707183838,238.08827695832588,0.0008425837755203248,-0.005772179430350662,-0.0022067391872406007,238.08827695832588,0.27872039794921877,0.11765533447265626,-9.802066497802734,238.0845539583279,-0.0017656844574958086,0.0003649146528914571,-0.0011371783912181854,238.08827695832588
2025-10-03 16:08:48.421523,0.2767198096588254,0.11811680769547821,-9.80538596212864,238.22730295832662,0.005144051425158978,-0.005550880590453744,0.003767945766448975,238.22730295832662,0.2760260009765625,0.11391311645507814,-9.797725524902344,238.22357995832863,-0.0024266333784908056,-0.00028625509003177285,-9.704520925879478e-05,238.22730295832662
2025-10-03 16:08:48.551413,0.2767309559136629,0.11774905437603593,-9.805388885736466,238.34646695832635,0.011419831439852715,-0.00907504314556718,0.011555267572402954,238.34646695832635,0.2893482971191406,0.111368408203125,-9.798174591064454,238.34274395832836,0.0007372018881142139,0.0008530452032573521,0.0015170970000326633,238.34646695832635
2025-10-03 16:08:48.710538,0.2761351977288723,0.11846944048069417,-9.805398826003076,238.50535295832742,-0.0008576038107275964,-0.002161277085542679,0.0021330642700195315,238.50535295832742,0.27273284912109375,0.11316467285156251,-9.802964630126954,238.5016299583258,-0.0006052353419363499,-0.00046184909297153354,-0.0003556264564394951,238.50535295832742
2025-10-03 16:08:48.844982,0.2759835721179843,0.11816570503637196,-9.805403503775597,238.64437895832816,-0.002202938497066498,-0.0009594458620995283,0.015164169073104859,238.64437895832816,0.269439697265625,0.113763427734375,-9.78844482421875,238.64065595832653,0.0015695607289671898,-0.00010538639617152512,-0.00011660298332571983,238.64437895832816
2025-10-03 16:08:48.987147,0.27590138219296934,0.11802158944308759,-9.80540935099125,238.79333495832907,-0.0012225979752838612,-0.00021657538600265981,0.008581958413124084,238.79333495832907,0.27452911376953126,0.11840377807617188,-9.797725524902344,238.78961195832744,-0.0021961049642413855,-0.0014992807991802692,0.002205217257142067,238.79333495832907
2025-10-03 16:08:49.121295,0.27595715001225474,0.11824934762902559,-9.805402919054032,238.9224299583293,-0.0008293361775577069,-0.0019412299152463675,0.014864206910133362,238.9224299583293,0.27452911376953126,0.11705657958984375,-9.791887664794922,238.91870695832768,0.0015881969593465328,-0.0023605753667652607,0.000493854284286499,238.9224299583293
2025-10-03 16:08:49.291964,0.2762054922245443,0.11861604114063085,-9.805392394065857,239.10117629166052,0.0017664255760610104,0.0011349080130457878,0.012458077669143678,239.10117629166052,0.2800675964355469,0.118553466796875,-9.791588287353516,239.09745329166253,0.0010778806172311306,-0.0012945975176990032,-0.0010933298617601395,239.10117629166052
2025-10-03 16:08:49.457319,0.2758199597150087,0.11890933382324875,-9.805402334332467,239.26999229166177,0.0031998522207140924,-0.0033496231678873303,0.011866339445114137,239.26999229166177,0.2797682189941406,0.1149609375,-9.796528015136719,239.26626929166014,-0.0007866895757615566,0.000930839916691184,0.0029499977827072144,239.26999229166177
2025-10-03 16:08:49.586855,0.27616538397967816,0.11897189903073013,-9.805390055179597,239.38915729166183,-0.001037515327334404,-0.010896651819348336,0.0027248024940490726,239.38915729166183,0.27722351074218754,0.11106903076171876,-9.796677703857423,239.3854342916602,0.0013056169264018536,-0.0007826400687918067,0.0005781515501439571,239.38915729166183
2025-10-03 16:08:49.719297,0.27588250664994124,0.11925193497911096,-9.805394148230553,239.51825229166207,0.000742249209433794,-0.002195355389267206,0.014405200481414795,239.51825229166207,0.27916946411132815,0.12020004272460938,-9.787546691894532,239.51452929166044,0.002531287260353565,0.00044576701475307345,0.0020935614593327045,239.51825229166207
2025-10-03 16:08:49.851036,0.2761455217190087,0.11929950756020845,-9.805388885736466,239.65727729166247,0.004071836527436972,-0.002242900561541319,0.010205730199813844,239.65727729166247,0.2817141723632813,0.118553466796875,-9.796977081298829,239.65355429166084,-0.0002551502548158169,0.001058119349181652,0.0020422583911567926,239.65727729166247
2025-10-03 16:08:49.980861,0.2755356753990054,0.11948674636892975,-9.805399995446205,239.7863732916594,0.0036337156221270565,-0.006471780510619283,0.002437119483947754,239.7863732916594,0.2812651062011719,0.11481124877929688,-9.793534240722657,239.7826502916614,-0.0017063189297914505,0.0003360446426086128,0.002231369260698557,239.7863732916594
2025-10-03 16:08:50.142319,0.2753685363940895,0.11938431959599258,-9.805409935712815,239.9353292916603,0.0012562925554811955,-0.0033755336422473196,0.006185184717178345,239.9353292916603,0.2751278686523438,0.11466156005859375,-9.799222412109376,239.93160629166232,0.00012021232396364212,-0.002118350937962532,-0.0007816413417458534,239.9353292916603
2025-10-03 16:08:50.269389,0.27552664875984195,0.11958335333503783,-9.805399995446205,240.07435491666183,0.0024453055858612064,-0.0028261420503258704,-0.0032522213459014893,240.07435491666183,0.2752775573730469,0.11630813598632814,-9.803862762451173,240.0706319166602,-0.002593889134004712,-0.0011047477601096034,-0.001222824677824974,240.07435491666183
2025-10-03 16:08:50.744689,0.2929529593884945,0.11336267419159413,-9.80497256398201,240.55101391666176,0.18275786809623243,-0.24224462617188694,0.34539152026176456,240.55101391666176,0.255069580078125,-0.1622625732421875,-9.65327590942383,240.54729091666013,-0.010142412036657333,-0.03831114247441292,-0.004792691674083471,240.55101391666176
2025-10-03 16:08:50.937363,0.2725361634045839,0.12313339895568788,-9.805437417626381,240.73969091666004,0.20616829231381417,-0.15052646225318314,-0.023719815015792848,240.73969091666004,0.4098477172851563,-0.02424957275390625,-9.697583770751953,240.73596791666205,-0.012606823816895485,-0.026830079033970833,0.015591921284794807,240.73969091666004
2025-10-03 16:08:51.080065,0.2796586019732058,0.12106366734020413,-9.8052655094862,240.87871691666078,-0.2715754110552371,-0.005803343262523413,-0.3355459785461426,240.87871691666078,0.5725593566894531,-0.006735992431640626,-9.550439758300781,240.88492491665966,0.01345609687268734,0.013457461260259151,-0.0038875648751854897,240.87871691666078
2025-10-03 16:08:51.221724,0.2929173644632101,0.11468208926729859,-9.804956776499749,241.02767316665995,-0.08664630733430385,0.21687843622639777,0.03731809973716736,241.02767316665995,0.19384689331054689,0.3138972473144531,-9.774374084472656,241.02395016666196,0.005913405679166317,0.027256619185209274,0.000389250461012125,241.02767316665995
2025-10-03 16:08:51.353247,0.3126103482395411,0.10718422290869058,-9.804429357647896,241.15676816666019,0.41547547962516546,-0.31555094953626395,-0.21198846459388734,241.15676816666019,0.542471923828125,-0.17857864379882812,-9.934391326904297,241.1530451666622,-0.008840610273182392,-0.025218000635504723,0.008436462841928005,241.15676816666019
2025-10-03 16:08:51.477495,0.3145053942874074,0.10509171456098557,-9.804395443797112,241.28586416666076,0.0368140697479248,0.17826903373003006,0.039451164007186894,241.28586416666076,0.3429368591308594,0.22617965698242187,-9.779912567138672,241.28214116665913,-0.006750745233148336,-0.008259604685008526,0.004180436488240957,241.28586416666076
2025-10-03 16:08:51.615114,0.3033535663224757,0.10870726726949216,-9.804706515669823,241.414959166661,0.05634846607223153,-0.08550551556050778,0.021949278116226198,241.414959166661,0.3373983764648438,0.024548950195312502,-9.766290893554688,241.41123616665936,-0.012092940509319305,-0.030974097549915314,0.003056502901017666,241.414959166661
2025-10-03 16:08:51.756293,0.27725305745378137,0.11802051136270165,-9.805373098254204,241.5639151666619,-0.07771795621141792,-0.0922740422654897,0.14685632944107058,241.5639151666619,0.20806732177734377,0.026494903564453127,-9.743089141845704,241.56019216666027,-0.00191962206736207,-0.010606858879327774,0.0007238877005875111,241.5639151666619
2025-10-03 16:08:51.889817,0.25914192823693155,0.1255632185563445,-9.805775386691094,241.69301016666213,-0.10226811239495874,-0.0992179854400456,0.051158459186553956,241.69301016666213,0.2177970886230469,0.023201751708984378,-9.733509063720703,241.6892871666605,0.007374940440058708,0.031902000308036804,0.006144629325717688,241.69301016666213
2025-10-03 16:08:52.022252,0.48448241841048006,-0.05178997218143195,-9.797893924713135,241.82210616665907,-1.8924544157087804,7.429647624492645,-11.946788946390152,241.82210616665907,-2.7565177917480472,3.2557296752929688,-14.314882049560548,241.81838316666108,0.9092656373977661,-0.4338187873363495,-0.26301270723342896,241.82210616665907
2025-10-03 16:08:52.158846,-0.07859408838674427,-4.280204834640026,-8.82665327847004,241.97106216665998,-2.885990933775902,-7.517512564659119,-23.712980790138246,241.97106216665998,-4.162693634033204,-10.56293426513672,-4.977898406982422,241.967339166662,0.022599760442972183,-2.8701670169830322,1.1424423456192017,241.97106216665998
2025-10-03 16:08:52.294936,-2.8361732411384586,-1.7597414776682854,-9.224724118709565,242.10015704165926,2.281127464771271,0.7536835858225823,8.241718289852143,242.10015704165926,-0.5608836364746094,-0.8839118957519532,-1.0431806945800781,242.09643404166127,-3.0049376487731934,-1.3993088006973267,1.43466055393219,242.10015704165926
2025-10-03 16:08:52.435513,-4.640015881061554,2.6684060990810394,-8.221067093610763,242.23918304166,4.614120317101479,-3.1966578868031506,8.170323786735535,242.23918304166,-0.07349716186523438,-0.5075944519042969,-0.6399192810058594,242.235460041662,-2.612926959991455,-1.6999951601028442,1.9494895935058594,242.23918304166
2025-10-03 16:08:52.655962,-3.730836704671383,1.6441326686739923,-8.92265461921692,242.3782080416604,7.998911490440369,-0.9805627159774304,1.8474687159061434,242.3782080416604,-0.496966552734375,-0.021106109619140626,3.969744873046875,242.3744850416624,2.4294779300689697,3.0450363159179688,-1.3597664833068848,242.3782080416604
2025-10-03 16:08:52.804565,0.6241472938656807,0.38349091764539484,-9.782613980770112,242.60660804166037,0.529503822773695,-0.11360204458236695,10.498572793006897,242.60660804166037,-1.3430072021484376,-0.2647993469238281,2.0407063293457033,242.60288504166238,0.9337115287780762,-0.5359430909156799,0.09664085507392883,242.60660804166037
2025-10-03 16:08:52.949262,0.09418529606424272,0.17720065606757998,-9.807948796749116,242.7456340416611,-0.2976122583635152,0.6112098176032305,1.7353846085071565,242.7456340416611,-2.6170079040527345,-0.11241622924804688,7.188202056884766,242.74191104165948,-0.1602763831615448,-0.2743751108646393,-0.060955312103033066,242.7456340416611
2025-10-03 16:08:53.105491,0.10926076104864478,-0.013645610623061657,-9.809383118748665,242.90452004166218,-0.32660876523703336,0.8559440785646439,0.28573705673217775,242.90452004166218,-0.12064910888671876,0.7650590515136719,-9.700128479003906,242.90079704166055,0.29934632778167725,0.020662818104028702,-0.3965356647968292,242.90452004166218
2025-10-03 16:08:53.239511,-0.4109096447378397,-0.20309221833944321,-9.799284392595291,243.03361579166085,-0.2396374623477459,0.5460290774703026,0.4938868242502213,243.03361579166085,-0.738863525390625,0.3016227722167969,-9.14702865600586,243.02989279165922,-0.030534669756889343,-0.5289697647094727,-0.9784843921661377,243.03361579166085
2025-10-03 16:08:53.394911,-0.3109226590767503,0.060226284675300126,-9.804887779355049,243.18257179166176,-0.0553656404837966,-0.9974274015426636,-0.8179225587844849,243.18257179166176,-0.3561094665527344,-0.9351054382324219,-10.280771026611328,243.17884879166013,-0.167925626039505,0.5290595889091492,-0.7575237154960632,243.18257179166176
2025-10-03 16:08:53.538149,0.08947231234051288,0.10756796470843256,-9.80900129556656,243.34145879165953,0.7064225882291795,-1.0447690907120706,-4.094385291337967,243.34145879165953,-0.7044351196289063,-0.9711804199218751,-11.91417434692383,243.33773579166154,0.007433250546455383,0.05629728361964226,0.04351665824651718,243.34145879165953
2025-10-03 16:08:53.681592,0.11705724653787912,0.10749767021276058,-9.808713027834893,243.49041479166044,0.2525241957418621,0.10131808603182435,-0.09888401806354523,243.49041479166044,0.434696044921875,0.20432510375976565,-9.715546417236329,243.48669179166245,-0.005975071806460619,-0.021757176145911217,-0.003305097110569477,243.49041479166044
2025-10-03 16:08:53.821734,0.0849821440782398,0.12182267247699202,-9.808876165151597,243.61950979166068,0.036116030970588325,-0.11987671910785139,-0.15440508484840393,243.61950979166068,0.14879058837890627,-0.010927276611328125,-9.98094451904297,243.61578679165905,-0.04306197538971901,-0.0576527863740921,0.011295793578028679,243.61950979166068
2025-10-03 16:08:53.951665,0.06573304619640112,0.32650293063372376,-9.80434398829937,243.75853579166142,-0.009599785069003702,0.4556205984950066,0.23743905544281008,243.75853579166142,0.10103988647460938,0.8243357849121095,-9.576784973144532,243.7548127916598,-0.13930243253707886,0.005140815861523151,0.26294177770614624,243.75853579166142
2025-10-03 16:08:54.088229,0.0760694982111454,0.37085859294980766,-9.802692734599114,243.887631791662,0.3170130823552609,-0.3148750479519367,0.6264747780561447,243.887631791662,0.3686833190917969,-0.00987945556640625,-9.167835388183594,243.88390879166036,0.11995241791009903,-0.009928579442203045,0.1734541356563568,243.887631791662
2025-10-03 16:08:54.241387,0.13781196590512992,0.1229568587243557,-9.808262792229653,244.0365873333285,-2.206360287666321,-1.00597062215209,0.7155693876743316,244.0365873333285,-2.294279022216797,-0.8882528686523438,-9.389674072265626,244.03286433332687,-0.021977417171001434,-0.06454513221979141,-0.08375317603349686,244.0365873333285
2025-10-03 16:08:54.757591,0.32546892363578084,-0.06010987483430654,-9.8044141548872,244.18554333332577,-0.18116903342306614,3.7216457587480547,-3.0370806473493577,244.18554333332577,0.15642471313476564,3.7423677062988285,-13.267210693359376,244.18182033332778,0.7305849194526672,0.11020702123641968,-0.21695397794246674,244.18554333332577
2025-10-03 16:08:54.918076,1.6514798413217069,4.7010599353909495,-8.450369163751603,244.72178633332805,-1.6180994027853013,-1.432158237397671,6.214619016051293,244.72178633332805,0.19639160156250002,3.134481811523438,-2.163750457763672,244.71806333332643,0.46351319551467896,2.5718913078308105,0.024436283856630325,244.72178633332805
2025-10-03 16:08:55.078052,-0.1489227719977498,0.18420859884470703,-9.80714129626751,244.87074233332896,-2.7161193788051605,2.6371243724226954,-18.63281925916672,244.87074233332896,-6.382427673339844,2.1639001464843752,-32.39683044433594,244.86701933332733,4.326106548309326,-1.7165721654891968,0.7394146919250488,244.87074233332896
2025-10-03 16:08:55.208442,0.2430673476867378,0.17917169764637947,-9.805350878834725,245.00976833332606,2.4782736495137216,0.5266105839237571,-9.067252753973008,245.00976833332606,2.309098205566406,0.7270381164550782,-15.579003295898438,245.00604533332807,0.2647739052772522,-0.09997924417257309,0.06915302574634552,245.00976833332606
2025-10-03 16:08:55.718778,0.24525181263685228,0.18404257446527483,-9.805209376215934,245.14879483332697,0.10606765139847994,-0.49614355713129044,0.1710918688774109,245.14879483332697,0.15881973266601562,-0.3454815673828125,-10.47626449584961,245.14507183332898,7.242430001497269e-06,0.02860962599515915,-0.013272874057292938,245.14879483332697
2025-10-03 16:08:55.957393,0.22897267090156675,0.19154546577483417,-9.80545963704586,245.7545508333278,-0.5240090480446816,0.7184123039245606,-0.05379087567329407,245.7545508333278,-0.0844244384765625,0.9386979675292969,-9.814191284179689,245.75082783332618,0.03864787518978119,0.08659554272890091,-0.006182534620165825,245.7545508333278
2025-10-03 16:08:56.097274,0.21496265083551408,0.19680070566013455,-9.805671890974045,245.89357683332855,0.23575010547414424,-0.41908843763172626,-0.013160912990570069,245.89357683332855,0.48529083251953126,-0.18905685424804688,-9.752070465087892,245.88985383332692,-0.0018466433975845575,-0.002544561168178916,-0.03099769353866577,245.89357683332855
2025-10-03 16:08:56.234311,0.2028872917033732,0.19841000558808447,-9.80589525461197,246.03260220832817,0.1993263008259237,-0.4284815510362387,-0.09316953420639039,246.03260220832817,0.42541534423828126,-0.14894027709960939,-9.881850585937501,246.02887920832654,-0.004004824440926313,-0.0006061275489628315,0.0006795860826969147,246.03260220832817
2025-10-03 16:08:56.372101,0.21078286008909347,0.19447230784222486,-9.805809300541878,246.1716282083289,0.2599882213398814,0.4617630985379219,-0.038920236825943,246.1716282083289,0.504151611328125,0.6656657409667969,-9.870025177001954,246.16790520832728,-0.002102513564750552,-0.037905752658843994,-0.03444819897413254,246.1716282083289
2025-10-03 16:08:56.505670,0.2415825934521854,0.1843197507597506,-9.805291821956635,246.30072320832915,-0.027976825553923848,-0.6881719663739205,-0.23597608208656312,246.30072320832915,0.24099884033203126,-0.43604324340820316,-9.993218994140625,246.29700020832752,0.0073372675105929375,0.008899841457605362,-0.005646532401442528,246.30072320832915
2025-10-03 16:08:56.644410,0.2408172842860222,0.18063940359279515,-9.805378945469856,246.44968020832675,0.12367471408098937,0.02353597490116954,-0.04398801863193512,246.44968020832675,0.3550616455078125,0.19609222412109376,-9.818083190917969,246.44595720832876,-0.0038211545906960964,-0.012922818772494793,-0.0005056131631135941,246.44968020832675
2025-10-03 16:08:56.775579,0.215030624717474,0.19313590843230488,-9.80574147284031,246.578775208327,0.019082534462213516,0.013733921851962805,-0.05410428643226624,246.578775208327,0.16615447998046876,0.0688568115234375,-9.835447082519531,246.575052208329,-0.0012371777556836605,0.011515310034155846,0.008264082483947277,246.578775208327
2025-10-03 16:08:56.902971,0.2366101578064263,0.18440088087692857,-9.805412859320642,246.69794020832705,-0.050247663985937836,-0.31133689776062967,-0.0759892451763153,246.69794020832705,0.12379257202148439,-0.10343490600585938,-9.91253677368164,246.69421720832906,0.042673200368881226,0.12755268812179565,-0.02183876559138298,246.69794020832705
2025-10-03 16:08:57.026396,0.5224626422300935,-2.025659250766039,-9.584353024363518,246.8369662083278,1.198807920590043,4.227879855930805,-5.22015966117382,246.8369662083278,1.5525714111328126,1.7790504455566407,-14.770384826660157,246.83324320832617,4.046014308929443,-0.5204095244407654,0.10893316566944122,246.8369662083278
2025-10-03 16:08:57.161234,1.0720837008208037,-3.3926349207758904,-9.142033964395523,246.95613120832786,4.9756402122974395,-2.7365197294950487,1.246102466583252,246.95613120832786,6.331084442138672,-5.315147094726563,-7.021299133300782,246.95240820832623,-3.4181814193725586,-0.04251277819275856,-0.15198281407356262,246.95613120832786
2025-10-03 16:08:57.290277,2.241956382393837,2.8825232425332072,-9.104985421299935,247.09515766665936,-2.2498901769518853,-3.629919317364693,8.171827690601349,247.09515766665936,0.10568023681640626,-0.6712042236328125,-0.47436355590820317,247.09143466666137,-5.164092063903809,1.638842225074768,-1.4162943363189697,247.09515766665936
2025-10-03 16:08:57.422033,-2.2266042253375056,4.431159185171127,-8.464225895404816,247.21432366665977,-23.69648696422577,-16.991840286254885,31.923743920326235,247.21432366665977,-19.878961486816408,-12.848830718994142,14.733112335205078,247.21060066666178,3.5715982913970947,-0.799146831035614,0.6529859900474548,247.21432366665977
2025-10-03 16:08:57.555086,0.9012143184989692,-0.7597664442658425,-9.738924754858017,247.36327966666067,-12.348659892082216,1.1456640393286943,-20.88633851051331,247.36327966666067,-4.150119781494141,9.068142700195313,-61.10772583007813,247.35955666665905,-1.809227466583252,10.981557846069336,0.4911574125289917,247.36327966666067
2025-10-03 16:08:57.676129,0.25434754030779005,-0.034780394439585506,-9.806641359329225,247.48244466666074,0.4108691527694464,2.4025565922260284,8.035074180364608,247.48244466666074,-0.4544549560546875,0.7539820861816406,13.479768676757812,247.4787216666591,-1.5642735958099365,-0.6216534376144409,-0.47364485263824463,247.48244466666074
2025-10-03 16:08:57.814760,0.19854710452258587,0.22109155610203743,-9.805498228669167,247.6115406666613,-4.481740231812,-0.25716653779149057,-3.3253454554080966,247.6115406666613,-3.0361363220214845,-0.22064117431640626,-10.133627014160156,247.60781766665968,-0.04771137982606888,0.03858937323093414,-0.0035754386335611343,247.6115406666613
2025-10-03 16:08:57.942435,0.18373724017292262,0.2190532715432346,-9.805830935239792,247.75056666666205,0.16578588612377645,0.41068715818226337,0.6233278065919876,247.75056666666205,0.4465214538574219,0.6221063232421875,-9.770631866455078,247.74684366666042,0.009805471636354923,-0.05177312344312668,-0.14699231088161469,247.75056666666205
2025-10-03 16:08:58.078822,0.19794919017702342,0.19884167628362776,-9.805986471176148,247.8796616666623,0.21728730278089645,0.11415742043405772,0.4173608046770096,247.8796616666623,0.4071533203125,0.23650817871093752,-9.750872955322267,247.87593866666066,-0.018274810165166855,-0.020797526463866234,-0.7538224458694458,247.8796616666623
2025-10-03 16:08:58.210728,0.18298833975568415,0.20893594393506648,-9.806069501638413,248.00875766665922,0.05651363164186478,0.0949321773648262,0.08183763027191163,248.00875766665922,0.0580792236328125,0.3192860412597656,-9.21977737426758,248.0149646666614,-0.03929367661476135,-0.05153682082891464,0.004876005928963423,248.0186876666594
2025-10-03 16:08:58.340907,0.18641250578686597,0.2142341608554125,-9.805889407396316,248.14778333332652,-0.022653045337647202,0.021824951693415643,-0.0737158477306366,248.14778333332652,0.3010240173339844,0.21420455932617188,-9.698332214355469,248.14406033332853,-0.007933948189020157,0.012655751779675484,-0.02372649684548378,248.14778333332652
2025-10-03 16:08:58.486091,0.20912451663985848,0.22667201081290841,-9.805150319337846,248.28680933332726,-0.0462632067874074,-0.6193055069446564,-0.10768466234207154,248.28680933332726,-0.05164260864257813,-0.42227188110351566,-9.601333923339844,248.28308633332927,-0.007283705752342939,0.02024691551923752,0.007499661296606064,248.28680933332726
2025-10-03 16:08:58.610236,0.21737225186079742,0.22754247849807144,-9.804950929284097,248.40597433332732,-0.7149375960230828,-0.2649646404013038,0.3200754153728485,248.40597433332732,-0.6222560119628907,-0.027991790771484375,-9.392069091796875,248.4022513333257,-0.03513327240943909,0.01829262636601925,0.06698501855134964,248.40597433332732
2025-10-03 16:08:58.736530,0.22706538224592807,0.22200458055362107,-9.804862051606179,248.54500033332806,1.4154689683020116,-0.75205228574574,0.1747849702835083,248.54500033332806,1.909728698730469,-0.4189787292480469,-10.026150512695313,248.54127733332643,-0.001838488969951868,0.002419394440948963,0.013926166109740734,248.54500033332806
2025-10-03 16:08:58.880708,0.2320875192247331,0.21987327044829727,-9.804790130853654,248.6840263333288,0.11653754783794285,-0.1100017311796546,-0.07571442604064942,248.6840263333288,0.32647109985351563,0.12289443969726563,-9.929601287841797,248.68030333332717,-1.1752825230360031e-05,0.005558048374950886,0.0013219635002315044,248.6840263333288
2025-10-03 16:08:59.009852,0.24572483411058785,0.2167284368723631,-9.804528175592424,248.81312133332904,0.07775252787396313,0.23787622617557647,-0.07687451362609864,248.81312133332904,0.319735107421875,0.46702880859375,-9.81718505859375,248.8093983333274,0.0016791895031929016,0.014619273133575916,-0.0029575549997389317,248.81312133332904
2025-10-03 16:08:59.140962,0.24843514647334816,0.21028595639392736,-9.804601850509645,248.94221733332597,-0.08722033945843578,-0.24830683663487435,-0.04566675424575806,248.94221733332597,0.26614654541015625,-0.0748443603515625,-9.851463775634766,248.93849433332798,0.031204208731651306,0.006483103614300489,-0.03684764355421066,248.94221733332597
2025-10-03 16:08:59.299215,0.2650135011970997,0.18073774645105006,-9.804753878116609,249.10110395832817,-0.23447700217366219,0.014606015793979169,0.23994400262832644,249.10110395832817,0.07379653930664062,0.17094451904296876,-9.557774505615235,249.09738095832654,0.0029260674491524696,-0.011019809171557426,-0.19663365185260773,249.10110395832817
2025-10-03 16:08:59.444196,0.25565817542374136,0.18921555133536458,-9.804841586351396,249.2401299583289,0.45446507904678585,-0.3890500117465854,0.06804054021835328,249.2401299583289,0.7539820861816406,-0.18232086181640625,-9.624685363769531,249.23640695832728,-0.003602331969887018,0.009204795584082603,-0.07463691383600235,249.2401299583289
2025-10-03 16:08:59.622400,0.2153145070374012,0.2094319340027869,-9.805401749610901,249.41887795832736,-0.5220266957581043,-0.15434648478403687,-0.04606319546699524,249.41887795832736,-0.09340576171875001,0.08277786254882813,-9.822124786376953,249.41515495832573,-0.0071535976603627205,0.02541913464665413,0.008532684296369553,249.41887795832736
2025-10-03 16:08:59.802498,0.2093082288466394,0.21497516753152013,-9.805412859320642,249.5976259583258,0.1426099717989564,0.08275573449209334,-0.025844693183898926,249.5976259583258,0.3135978698730469,0.2932402038574219,-9.832602996826173,249.59390295832782,0.00092715909704566,-0.0005171013763174415,-0.002374800853431225,249.5976259583258
2025-10-03 16:08:59.975967,0.20692265622317793,0.21211840068921448,-9.805521617531777,249.7664429583274,0.1580918456800282,-2.0865074233710765,0.041328704953193664,249.7664429583274,0.8352630615234375,-2.3299049377441405,-8.888067169189453,249.76271995832576,-0.047742802649736404,0.005764896050095558,-0.008981646969914436,249.77637295832756
2025-10-03 16:09:00.116401,0.18337010812014343,0.22293352039530875,-9.805751997828484,249.9153989583283,-0.444127896130085,-1.5014249387383463,-0.3217371940612793,249.9153989583283,0.10433303833007813,-1.074166259765625,-10.061776428222657,249.91167595832667,-0.008043034002184868,0.0033947452902793884,0.08774162828922272,249.9153989583283
2025-10-03 16:09:00.258147,0.17316912878304722,0.21727878777310253,-9.806063654422761,250.05442504166058,-0.2168782535009086,0.07371606700122357,0.8359682357311249,250.05442504166058,0.09804611206054688,0.34084121704101566,-8.693172454833984,250.0507020416626,0.009988725185394287,-0.03267974779009819,0.04021560773253441,250.05442504166058
2025-10-03 16:09:00.423092,0.2179097023420036,0.1920425521954894,-9.805696449279786,250.23317304165903,0.09224525386467576,2.141155500859022,0.10227774202823639,250.23317304165903,0.38769378662109377,2.330204315185547,-9.684261474609375,250.22945004166104,0.009046263061463833,0.00925901997834444,-0.0017327051609754562,250.23317304165903
2025-10-03 16:09:00.551136,0.21273321714252236,0.19490836394950747,-9.805758429765701,250.3622690416596,0.18843260915949941,1.2133631752431393,0.11490831255912781,250.3622690416596,0.4129911804199219,1.3820759582519533,-9.735155639648438,250.3585460416616,-0.008183309808373451,-0.016073422506451607,0.004316240083426237,250.3622690416596
2025-10-03 16:09:00.686516,0.18843334006145598,0.2019749433360994,-9.806112186312676,250.48143404165967,0.22830007664859295,0.22433855149894955,-0.21150782346725466,250.48143404165967,0.223934326171875,0.3396437072753906,-10.13811767578125,250.47771104166168,-0.005489699076861143,-0.013896715827286243,0.01846756972372532,250.48143404165967
2025-10-03 16:09:00.827611,0.193008037135005,0.21261241732165218,-9.805795851945877,250.63039004166058,0.01565802125260234,-0.9652473232895137,0.0225907176733017,250.63039004166058,0.07978408813476563,-0.7885601806640625,-9.802066497802734,250.62666704166259,0.0017863083630800247,0.01988566853106022,0.0035183418076485395,250.63039004166058
2025-10-03 16:09:00.987614,0.19441471276804806,0.211964326556772,-9.805784157514573,250.77934704166182,0.09343671541661025,-0.5240652909502387,0.04323431253433228,250.77934704166182,0.2932402038574219,-0.28156448364257813,-9.775421905517579,250.7756240416602,0.0003441767767071724,0.0004804391064681113,0.0007074363529682159,250.77934704166182
2025-10-03 16:09:01.111391,0.1968646230362356,0.21227139674127102,-9.805728608965874,250.90844204166206,0.1299058542586863,-0.5327549477666617,-0.0014278900623321533,250.90844204166206,0.32527359008789064,-0.3095562744140625,-9.798174591064454,250.90471904166043,-0.0018127616494894028,-0.0005541184218600392,0.0021851786877959967,250.90844204166206
2025-10-03 16:09:01.261579,0.19838120805099607,0.21001725856214762,-9.805745565891266,251.06732904165983,0.13587370527908207,-0.1743913430348039,0.004577200412750245,251.06732904165983,0.3308120727539063,0.022004241943359377,-9.792636108398439,251.06360604166184,-0.00014427537098526955,-0.0011487232986837626,0.0009871283546090126,251.06732904165983
2025-10-03 16:09:01.395026,0.2033930575847626,0.20578641431406142,-9.805730947852135,251.19642404166007,0.1323587246797979,-0.42837356027215723,-0.0029206842184066775,251.19642404166007,0.329315185546875,-0.09969268798828125,-9.813143463134766,251.20263204166258,0.01057386677712202,0.0025543232914060354,-0.010791339911520481,251.19642404166007
2025-10-03 16:09:01.524782,0.25486686442047357,-0.3590044230222702,-9.800114112496377,251.3354500416608,0.8338191647082568,1.9028938883543016,-4.275414503216743,251.3354500416608,1.911075897216797,2.0854632568359377,-21.63271453857422,251.33172704165918,2.036746025085449,-0.01621246337890625,-0.23272015154361725,251.3354500416608
2025-10-03 16:09:01.653935,0.029773017112165692,-3.1425214406847957,-9.29299562394619,251.4546160416612,-4.681350140869617,-14.294268275499345,-25.53897034406662,251.4546160416612,-7.890242156982422,-20.002304992675782,-14.39017547607422,251.45089304165958,-0.5624580979347229,-1.7172023057937622,0.32321929931640625,251.4546160416612
2025-10-03 16:09:01.800718,-2.5100246152281764,-0.6713445568084717,-9.459661150574684,251.59364204166195,2.600585998892784,0.41807116828858853,9.478671033382417,251.59364204166195,0.22483245849609376,-0.2721340942382813,0.23905288696289065,251.58991904166032,-2.471140146255493,-1.3721596002578735,0.20136946439743042,251.59364204166195
2025-10-03 16:09:01.966170,2.58751045525074,1.8655529844760896,-9.276885960102081,251.77238904166006,-2.5424541503190996,-1.4453767454624176,9.052352879047394,251.77238904166006,0.07529342651367188,0.6038442993164063,-0.8592132568359375,251.76866604166207,-0.8372372388839722,3.4172475337982178,-1.1757293939590454,251.77238904166006
2025-10-03 16:09:02.097230,-0.19404666708782317,0.2501926002278924,-9.80488894879818,251.90148504166064,-28.605315721035005,-10.85533948659897,-8.679273038506508,251.90148504166064,-16.222365417480468,-15.53933578491211,16.535065155029297,251.89776204166265,-0.08251334726810455,-3.7167727947235107,0.8211991190910339,251.90148504166064
2025-10-03 16:09:02.225023,0.16144215406849982,0.19363394502550366,-9.806760057806969,252.03057991665992,0.9188613615185023,2.264703951627016,1.317613914012909,252.03057991665992,0.6728507995605469,1.3998889160156252,5.429958343505859,252.02685691666193,0.18929912149906158,0.495113343000412,0.23602472245693207,252.03057991665992
2025-10-03 16:09:02.377248,0.1607898423448205,0.13914397990331054,-9.807696197032929,252.17953691666116,-0.17530962998047472,-0.4347791850194335,1.6719633686542512,252.17953691666116,0.22168899536132813,-0.10582992553710938,-10.494227142333985,252.17581391665954,0.06712135672569275,0.02440284751355648,-0.010043380782008171,252.17953691666116
2025-10-03 16:09:02.514852,0.1515327041130513,0.13671384053304791,-9.807876291275026,252.3185629166619,0.44243213050067426,0.49407444678246976,-0.07651841819286347,252.3185629166619,0.5167254638671875,0.5713618469238282,-9.171876983642578,252.31483991666028,-0.01429244875907898,-0.0016368532087653875,0.0070339711382985115,252.3185629166619
2025-10-03 16:09:02.637249,0.14878072120249272,0.13581331450492146,-9.807932424545289,252.44765791666214,0.807730204090476,0.9025773775577546,-0.12511287331581117,252.44765791666214,0.8222401428222657,0.9731263732910157,-10.338700561523439,252.4439349166605,-0.0106338020414114,-0.018017476424574852,0.04850710555911064,252.44765791666214
2025-10-03 16:09:02.786194,0.09693145003169776,0.16790402172133329,-9.808085621595383,252.58668391665924,-0.7693331468850375,0.162908051032573,0.6824612832069398,252.58668391665924,-0.6285429382324219,0.33320709228515627,-9.20256317138672,252.58296091666125,0.004960754420608282,0.027174606919288635,0.3944897949695587,252.58668391665924
2025-10-03 16:09:02.940295,0.13096274762414398,0.18232957782223821,-9.807432487607002,252.7356409166605,0.21856040608137847,0.18635374126955867,0.3445600461959839,252.7356409166605,0.40236328125000004,0.36898269653320315,-9.656718750000001,252.7319179166625,-0.013510607182979584,0.07911333441734314,0.4029715359210968,252.7356409166605
2025-10-03 16:09:03.082944,0.1504777750466019,0.19504855094477536,-9.806907992362977,252.87466691666123,0.2047335683181882,0.03951369266957045,0.30795998454093937,252.87466691666123,0.4034111022949219,0.2609074401855469,-9.341474304199219,252.8709439166596,-0.0032758729066699743,0.007271421607583761,0.3644227087497711,252.87466691666123
2025-10-03 16:09:03.239704,0.17793798996135593,0.19932326758280397,-9.806361862421037,253.04348391665917,-0.07210804615169764,0.07954683735966683,0.8525801753997804,253.04348391665917,0.26689498901367187,0.24084915161132814,-8.757089538574219,253.03976091666118,-0.0034899762831628323,-0.040577515959739685,0.08446279168128967,253.04348391665917
2025-10-03 16:09:03.372221,0.18591865360736848,0.20002467764541507,-9.806197555661202,253.1825099166599,0.39532264888286595,0.25862154431641105,0.44586305737495424,253.1825099166599,0.46702880859375,0.41269180297851565,-9.404343566894532,253.17878691666192,0.00279354490339756,-0.032811786979436874,0.037648819386959076,253.1825099166599
2025-10-03 16:09:03.503267,0.2022620781697333,0.20112179802730681,-9.805853739380836,253.31160591666048,0.1659721747599542,0.07864642096683383,-1.135943262577057,253.31160591666048,0.7584727478027344,0.23725662231445313,-10.98400863647461,253.3078829166625,0.0017892410978674889,-0.02515339106321335,0.03403444588184357,253.31160591666048
2025-10-03 16:09:03.638584,0.18497723361477256,0.2045776486583054,-9.80612388074398,253.44070091666072,0.8014714175462723,-0.9614038022607565,-1.3142529344558715,253.44070091666072,0.8828640747070313,-0.8316705322265625,-10.281070404052734,253.4369779166591,-0.024271845817565918,-0.07112564891576767,0.046029042452573776,253.44070091666072
2025-10-03 16:09:03.770476,0.16624001378193498,0.20311140451580287,-9.806488162279129,253.57972691666146,0.07535758143290877,-1.9677916963398459,0.0765716278553009,253.57972691666146,0.2520758056640625,-1.7681231689453125,-9.650282135009766,253.57600391665983,-0.011288288980722427,0.025339264422655106,0.005365525837987661,253.57972691666146
2025-10-03 16:09:03.907504,0.16956620240584017,0.20331585606560112,-9.80642910540104,253.70882291666203,0.17801104361191392,-1.9440460073947907,-0.023032182455062868,253.70882291666203,0.3311114501953125,-1.7410295104980469,-9.790091400146485,253.7050999166604,0.0006287377327680588,0.0023055300116539,0.014053205028176308,253.70882291666203
2025-10-03 16:09:04.046139,0.20852358732372522,0.2015085547976196,-9.805713406205177,253.84784891665913,0.002836868036538363,-1.9884924477338792,-1.315859164595604,253.84784891665913,-0.02484832763671875,-1.751807098388672,-11.198362884521485,253.84412591666114,0.026930930092930794,0.011697948910295963,0.04610443860292435,253.84784891665913
2025-10-03 16:09:04.177721,0.21412933124229314,0.20413910748437047,-9.80553740501404,253.97694391665937,-0.09318084491416813,-1.6046268332004547,-0.7960153806209564,253.97694391665937,-0.5453160095214844,-1.389111328125,-9.218280487060547,253.97322091666138,-0.03466710075736046,-0.050531767308712006,0.04472261667251587,253.97694391665937
2025-10-03 16:09:04.310966,0.17724260983988643,0.18135819084942342,-9.806724389791489,254.10604016666184,0.4189676195383072,-0.5227981262281537,-2.618190211057663,254.10604016666184,0.9714797973632813,-0.28021728515625,-10.98311050415039,254.1023171666602,-0.03807995468378067,-0.04220089688897133,0.033752959221601486,254.10604016666184
2025-10-03 16:09:04.509835,0.23132405558601024,-0.5843820612877607,-9.789846401810646,254.2847881666603,0.5840303878113627,6.640787481665612,-7.680324191451073,254.2847881666603,1.9137702941894532,6.743476867675781,-18.656453704833986,254.2810651666623,2.526050329208374,-0.3303501605987549,-0.3725139796733856,254.2847881666603
2025-10-03 16:09:04.654466,1.4782937921583654,-5.255872115492821,-8.150247371792794,254.46353516666204,2.3077827282249928,-6.460861639380456,4.768630067110062,254.46353516666204,4.514162750244141,-11.717034301757813,-3.4084121704101564,254.4598121666604,-0.19711925089359283,0.8862242698669434,-0.9015244841575623,254.46353516666204
2025-10-03 16:09:04.789150,1.5357318685948849,-3.197120693922043,-9.14636792063713,254.5926311666626,-1.756223354190588,2.069964627027512,7.132156494855881,254.5926311666626,-0.30386810302734374,-1.141077117919922,-1.9519409179687501,254.58890816666099,-2.7830629348754883,-1.0315698385238647,-0.27022820711135864,254.5926311666626
2025-10-03 16:09:04.906958,-0.08842882188968361,0.24509689796715975,-9.806541956663132,254.71179616665904,-1.437498060911894,-0.4616964402794838,7.174562841653824,254.71179616665904,-1.5091616821289062,-0.07903564453125,-2.5771907043457034,254.70807316666105,-3.0770511627197266,-1.2674918174743652,0.5043802857398987,254.71179616665904
2025-10-03 16:09:05.044733,-0.7959264298528433,3.0702697357535365,-9.283107397556305,254.85082216665978,-0.3628139571100474,0.001642482876777649,6.596493068933487,254.85082216665978,-1.131646728515625,3.030597839355469,-2.617606658935547,254.8470991666618,-1.3977181911468506,0.5038930773735046,0.14979903399944305,254.85082216665978
2025-10-03 16:09:05.174943,0.23433983014896514,1.5033805400133133,-9.691286319494248,254.97991816666035,2.800599073469639,6.389406325221062,-68.79425099372864,254.97991816666035,4.315825195312501,-1.887125701904297,-49.87149169921875,254.97619516666236,2.4251749515533447,-1.5038193464279175,1.009740948677063,254.97991816666035
2025-10-03 16:09:05.307390,0.12256176053546369,0.15090878793038429,-9.808072172999383,255.10901329166154,3.0240448647737503,-0.3329302997142077,5.939967110753059,255.10901329166154,-3.1100825500488285,0.46717849731445316,-20.46439407348633,255.1052902916599,0.020349089056253433,2.6267597675323486,0.5364619493484497,255.10901329166154
2025-10-03 16:09:05.501095,0.13624309399165213,0.15707534378394486,-9.807797938585281,255.25797029165915,0.010514801228418948,-0.8041272228956223,0.8932346963882447,255.25797029165915,0.49472122192382817,-0.6577322387695312,-9.353150024414063,255.26417729166133,0.004061225336045027,0.009090465493500233,0.017284000292420387,255.26790029165932
2025-10-03 16:09:05.630388,0.13677726455032826,0.15573214698582888,-9.807811387181282,255.4367172916609,0.22651726059615612,-0.11801057109609246,-0.18690507888793947,255.4367172916609,0.21794677734375,0.09415420532226564,-10.556497650146484,255.43299429165927,0.011380922049283981,0.031050359830260277,0.007867595180869102,255.4367172916609
2025-10-03 16:09:05.790943,0.13484566426835956,0.15547543594613672,-9.80783886909485,255.58567429166214,0.23398729786276817,0.20138243766501546,-0.16891202688217163,255.58567429166214,0.42526565551757817,0.30910720825195315,-9.758357391357423,255.58195129166052,-0.013788227923214436,-0.021602032706141472,0.013672774657607079,255.58567429166214
2025-10-03 16:09:05.914595,0.12440192498266697,0.15648004241287708,-9.807963414788247,255.71476929166238,0.15716255865991116,-0.1876152963191271,-0.13032040357589722,255.71476929166238,0.3308120727539063,-0.04580474853515625,-9.698631591796875,255.71104629166075,-0.004506074357777834,-0.00973584596067667,-0.0006158128380775452,255.71476929166238
2025-10-03 16:09:06.074840,0.1327567099314183,0.14981829134747388,-9.807958737015724,255.87365629166015,0.11213403713889421,-0.1155395834427327,-0.1698429036140442,255.87365629166015,0.29309051513671874,0.0532891845703125,-9.766590270996094,255.86993329166216,-0.0015437973197549582,0.009844648651778698,-0.007530672941356897,255.87365629166015
2025-10-03 16:09:06.208556,0.13324039343744518,0.15142797499895097,-9.80792482316494,256.0126822916609,0.13934275782667102,0.078344193007797,-0.037699922919273376,256.0126822916609,0.24998016357421876,0.22123992919921875,-9.899663543701172,256.00895929165927,0.0033614495769143105,0.0035019563511013985,-0.0007691117934882641,256.0126822916609
2025-10-03 16:09:06.340511,0.13657379971817135,0.15139252625405789,-9.807880969047547,256.14177766666035,0.17837126864120365,-0.09989961546845734,-0.03400272846221924,256.14177766666035,0.2986289978027344,0.04415817260742188,-9.820178833007812,256.13805466666236,-0.00023755989968776703,-0.0011125310556963086,0.00475365249440074,256.14177766666035
2025-10-03 16:09:06.465638,0.14066390879452229,0.15141349400393667,-9.807823666334153,256.2708736666609,0.17832277329638602,0.1397310860361904,-0.003973767757415772,256.2708736666609,0.29683273315429687,0.2839595031738281,-9.811796264648438,256.2671506666593,0.002108389977365732,0.005563641432672739,-0.0032669291831552982,256.2708736666609
2025-10-03 16:09:06.611877,0.14846213931217792,0.14877311982214453,-9.807748821973801,256.40989966666166,0.40733209893107414,-0.0902448391634971,0.05193613886833191,256.40989966666166,0.4776567077636719,0.08457412719726563,-9.816885681152344,256.40617666666003,-0.0035578571259975433,-0.022380294278264046,0.036446463316679,256.40989966666166
2025-10-03 16:09:06.734920,0.1506578327436,0.14592216365039348,-9.807760516405105,256.5389946666619,0.06878586835227907,-0.1513109119143337,-0.030383301973342897,256.5389946666619,0.2219883728027344,0.011226654052734375,-9.820627899169923,256.53527166666026,0.004019684623926878,0.015932712703943253,-0.024369165301322937,256.5389946666619
2025-10-03 16:09:06.869817,0.14634245054796338,0.14281938434578478,-9.807870444059372,256.67802066666263,0.18626590512692928,0.023634491348639132,0.09471787691116333,256.67802066666263,0.35745666503906254,0.20267852783203125,-9.833052062988282,256.674297666661,-0.013857202604413033,-0.01443994790315628,0.020656924694776535,256.67802066666263
2025-10-03 16:09:06.990819,0.1364486053492874,0.14507866624742746,-9.807978617548944,256.79718566665906,0.23941976319998504,0.11822378433309497,0.4295306146144867,256.79718566665906,0.2974314880371094,0.23935226440429688,-9.582772521972657,256.79346266666107,0.0015224916860461235,-0.017270617187023163,-0.0008764835074543953,256.79718566665906
2025-10-03 16:09:07.143223,0.1356129834149033,0.14225793287158012,-9.808034750819207,256.9461426666603,0.0016516191512346268,-0.37472444303333763,0.05491237163543702,256.9461426666603,0.21031265258789064,-0.2721340942382813,-9.775721282958985,256.9424196666623,0.002616889774799347,0.013236074708402157,-0.09361474215984344,256.9461426666603
2025-10-03 16:09:07.273640,0.13134572197683156,0.14762585042975843,-9.80800843834877,257.0752384166626,0.22880531262606382,-0.495053380317986,0.00324871301651001,257.0752384166626,0.33979339599609376,-0.3333567810058594,-9.768386535644531,257.071515416661,-0.007857944816350937,-0.013776207342743874,0.015269303694367409,257.0752384166626
2025-10-03 16:09:07.408013,0.12717830174602568,0.14885742022655904,-9.808044106364251,257.2043334166592,0.14705140717327594,-0.25094513688236475,-0.03997507452964783,257.2043334166592,0.2656974792480469,-0.11570938110351563,-9.813891906738283,257.2006104166612,-0.0006501283496618271,0.015168251469731331,-0.00230616657063365,257.2043334166592
2025-10-03 16:09:07.538117,0.1883620223030448,0.13012523448094726,-9.80733074605465,257.3433604166603,-0.08268176721408964,-0.8197411890327931,0.2618289613723755,257.3433604166603,-0.024099884033203126,-0.6743476867675782,-9.578431549072267,257.3396374166623,0.01229526475071907,0.06320039182901382,-0.10509677976369858,257.3433604166603
2025-10-03 16:09:07.673864,0.2205440739914775,-0.3910758892446757,-9.799723518490792,257.4724554166605,-0.4645366521924734,-0.4145489152148366,-3.1309898543357852,257.4724554166605,-0.23141876220703125,-0.8425978088378907,-13.086237030029297,257.46873241666253,1.269162654876709,0.015197920612990856,-0.5503551959991455,257.4724554166605
2025-10-03 16:09:07.806438,0.17593292489647866,-4.193014078438282,-8.867005498409272,257.61148141666126,-3.4484275907278064,3.8605554297566416,-1.780053827762604,257.61148141666126,-3.1198123168945315,-2.2302122497558594,-11.044632568359376,257.60775841665964,4.001391410827637,0.1525500863790512,-0.058476194739341736,257.61148141666126
2025-10-03 16:09:07.925375,0.6176935757696629,-4.990437176227569,-8.423183704018593,257.73064741666167,0.6795086585730314,1.275314571261406,3.008795911073685,257.73064741666167,1.1413764953613281,-3.393592987060547,-5.122348022460938,257.72692441666004,-1.2203747034072876,-0.7763030529022217,-1.2002867460250854,257.73064741666167
2025-10-03 16:09:08.063526,0.28465205105021596,-2.0819524423778057,-9.58230357527733,257.8597424166619,0.2819197385385633,1.3749727606773376,9.670620505213739,257.8597424166619,0.42526565551757817,-0.801134033203125,0.006436614990234376,257.8560194166603,-3.3127403259277344,-0.6871879696846008,0.14524786174297333,257.8597424166619
2025-10-03 16:09:08.191335,-0.6839485225081444,2.228198907226324,-9.529086896181107,257.99876941665934,0.6415864683687688,-2.2961568555235865,8.234426811933519,257.99876941665934,-0.09789642333984376,-0.023501129150390626,-1.8000068664550781,257.99504641666135,-2.8546924591064453,-0.47086572647094727,0.4093422591686249,257.99876941665934
2025-10-03 16:09:08.321645,0.3452963933721185,3.921321741342545,-8.985548440217972,258.12786491665975,-0.7174226626753808,0.6919343572854996,7.123721886277199,258.12786491665975,-0.01107696533203125,4.909939727783203,-3.9284307861328127,258.12414191666176,0.525691032409668,2.1268081665039062,-0.3119896352291107,258.12786491665975
2025-10-03 16:09:08.447088,0.09387545758858323,-0.10652107556350529,-9.808970305323601,258.24703091666015,-1.0878085447847843,-1.598433462381363,-1.1223455625772476,258.24703091666015,-3.6372862243652344,-0.8720864868164063,-12.709171142578125,258.24330791666216,3.8487772941589355,6.105251789093018,1.2205016613006592,258.24703091666015
2025-10-03 16:09:08.602721,0.15918321020901205,0.12390931533649564,-9.807926577329637,258.40591791666156,-4.890095154941082,-0.09965972431004048,-2.750209815502167,258.40591791666156,-2.650987243652344,0.03502716064453125,-13.16542236328125,258.40219491665994,0.025502357631921768,0.11840485036373138,-0.03555753827095032,258.40591791666156
2025-10-03 16:09:08.739327,0.1663013181835413,0.1102381962351501,-9.8079692620039,258.53501391666214,0.3074634828418493,0.22835767172276975,-0.1816408306360245,258.53501391666214,0.4123924255371094,0.41119491577148437,-10.006541290283204,258.5412209166607,-0.0018020959105342627,0.013977537862956524,0.004579629749059677,258.5449439166623
2025-10-03 16:09:08.891220,0.1847161919809878,0.10880552790127695,-9.807657605409622,258.6839699166594,0.04984603336080909,-0.4143202159926295,-0.09784379839897156,258.6839699166594,0.425115966796875,-0.29907806396484377,-9.747879180908203,258.6802469166614,0.006734033580869436,0.02509024739265442,0.006224470213055611,258.6839699166594
2025-10-03 16:09:09.019964,0.1680237434618175,0.10942204370163382,-9.807948796749116,258.8229969166605,0.2009589165262878,0.03158471292816103,-0.24484455406665803,258.8229969166605,0.3511697387695313,0.12723541259765625,-9.842183074951173,258.8192739166625,-0.007803493179380894,-0.016744032502174377,0.005022826138883829,258.8229969166605
2025-10-03 16:09:09.147986,0.17420660756528378,0.10806033681146801,-9.80785582602024,258.9520919166607,0.6502787929773332,-0.2129921391606331,0.14305622398853302,258.9520919166607,0.9373507690429688,-0.09610015869140626,-9.569899291992188,258.9483689166591,0.0018211347050964832,0.001057744026184082,-0.010130872949957848,258.9520919166607
2025-10-03 16:09:09.282830,0.16057281928136946,0.11198134258389474,-9.808047614693642,259.091119291661,0.11500411553308368,0.306847697943449,-0.1725981116294861,259.091119291661,0.14819183349609374,0.3800596618652344,-10.036778411865235,259.0873962916594,0.00205154437571764,-0.012434972450137138,0.013903399929404259,259.091119291661
2025-10-03 16:09:09.405858,0.17831952078267932,0.11060329089872539,-9.807755253911019,259.2102842916611,0.20952395455911757,-0.19832087209448218,0.01841288208961487,259.2102842916611,0.37392242431640627,-0.09624984741210937,-9.737101593017579,259.20656129165945,-0.002362578408792615,0.0054260604083538055,0.0067713321186602116,259.2102842916611
2025-10-03 16:09:09.537298,0.20485149934887886,0.10725614366121591,-9.807275197505952,259.33938029166166,0.15095858976244927,0.022224599746987223,0.029158895015716554,259.33938029166166,0.3740721130371094,0.1728904724121094,-9.791139221191406,259.33565729166,0.0011389064602553844,0.03005559928715229,0.0009550531394779682,259.33938029166166
2025-10-03 16:09:09.674676,0.2337296366505325,0.10769963669590653,-9.806623817682267,259.4784062916624,0.2744635701365769,0.3912128602713347,0.02476529717445374,259.4784062916624,0.38455032348632817,0.5147795104980469,-9.783205718994141,259.47468329166077,0.00268545001745224,0.016575932502746582,-0.007262886501848698,259.4784062916624
2025-10-03 16:09:09.798654,0.24950865872204306,0.10599233195185662,-9.806252519488336,259.59757229165916,0.1449210837855935,-0.2272402139939368,0.014964779019355775,259.59757229165916,0.39996826171875,-0.15837066650390627,-9.806557159423829,259.5938492916612,-5.417643114924431e-05,-0.0059244330041110516,0.00019551115110516548,259.59757229165916
2025-10-03 16:09:09.946239,0.25231625413522124,0.10604079075157644,-9.806183522343636,259.74652829166007,0.14840050600469112,0.15636357318609953,0.019982274770736694,259.74652829166007,0.3932322692871094,0.2375559997558594,-9.785451049804688,259.7428052916621,-0.0032937396317720413,0.013921861536800861,6.493087857961655e-05,259.74652829166007
2025-10-03 16:09:10.074940,0.25071844764053824,0.1062697457894683,-9.806220359802246,259.88555529166115,0.14041817955672742,-0.052980552082881334,-0.007222480773925782,259.88555529166115,0.384400634765625,0.06661148071289062,-9.81239501953125,259.8818322916595,0.0008494402281939983,-0.003777645528316498,-0.0003450005315244198,259.88555529166115
2025-10-03 16:09:10.204853,0.24907554449513555,0.10589133043773473,-9.806267137527467,260.0047202916612,0.12065563218668104,0.05337747752666474,-0.004033409357070923,260.0047202916612,0.36898269653320315,0.15687377929687502,-9.789043579101563,260.0009972916596,0.002904308959841728,-0.003230468137189746,0.0010207255836576223,260.0047202916612
2025-10-03 16:09:10.342632,0.22891924196854235,0.10572222713381052,-9.806757718920709,260.14374629166196,0.12733989503234625,0.1399169452674687,-0.017910606265068057,260.14374629166196,0.3710783386230469,0.2698887634277344,-9.816436614990234,260.1400232916603,0.00144860427826643,-0.018904058262705803,-0.0007229465991258621,260.14374629166196
2025-10-03 16:09:10.484183,0.21837470216676594,0.09426510142162443,-9.807116153240205,260.2827732916594,-0.10056967897340656,0.2507674180716276,-0.49476098299026494,260.2827732916594,0.1986369323730469,0.2974314880371094,-10.032587127685547,260.2790502916614,0.01752806082367897,0.012822813354432583,-0.07280648499727249,260.2827732916594
2025-10-03 16:09:10.614116,0.20962202332913876,0.08956036775372923,-9.807352380752564,260.41186929165997,0.18271213190630078,0.5853861013054849,-0.01686921715736389,260.41186929165997,0.4140390014648438,0.7159611511230469,-9.814939727783203,260.408146291662,-0.014334432780742645,-0.011436592787504196,0.02425740845501423,260.41186929165997
2025-10-03 16:09:10.761810,0.21244094772264363,0.10830622136592866,-9.807100365757943,260.5707562916614,-0.37350602947175504,-1.0658649677038192,-0.14375555098056794,260.5707562916614,-0.5099894714355468,-0.9680369567871094,-10.012678527832032,260.56703329165975,-0.0026291869580745697,0.024373551830649376,-0.004837330896407366,260.5707562916614
2025-10-03 16:09:10.903101,0.2108164084888995,0.10631487898528577,-9.807156499028206,260.7097822916621,0.42356433503329755,-1.047856932207942,0.19235292971134188,260.7097822916621,0.5466632080078125,-0.8994795227050781,-9.81718505859375,260.7060592916605,0.0009879916906356812,-0.008462133817374706,0.017526550218462944,260.7097822916621
2025-10-03 16:09:11.040791,0.23550541777163744,0.08719299458898605,-9.806783446669579,260.84880929165956,-0.08087700583040715,-2.4400002609193328,-0.04437919735908508,260.84880929165956,0.17139358520507814,-2.2634431457519533,-9.900112609863282,260.8450862916616,0.11834441870450974,0.3335534334182739,0.021449709311127663,260.84880929165956
2025-10-03 16:09:11.186855,0.2423232894949615,-2.3646654653549195,-9.517656174302102,260.9878352916603,0.09881735980510713,5.448851282000542,-4.489916685819626,260.9878352916603,0.5421725463867187,2.675087127685547,-13.749807128906252,260.9841122916623,4.01299524307251,-0.24273383617401123,-0.141214057803154,260.9878352916603
2025-10-03 16:09:11.337914,-1.694204715192318,-3.611316985487938,-8.962374170422555,261.1467222916617,0.4121208223700524,0.633110198378563,3.5285245048999787,261.1467222916617,-1.1960128784179689,-2.546953582763672,-4.675826568603516,261.1429992916601,-2.2136645317077637,-0.9058297872543335,-0.020385747775435448,261.1467222916617
2025-10-03 16:09:11.470843,-0.9182990055531264,-0.5924743884801865,-9.748938111662865,261.2758182916623,2.3509698244929313,0.4526652329787612,9.374118139743805,261.2758182916623,0.40266265869140627,-0.1502874755859375,0.5825885009765626,261.27209529166066,-2.435878276824951,2.3045451641082764,0.27658382058143616,261.2758182916623
2025-10-03 16:09:11.609693,1.9557128106057644,1.8272461205720902,-9.437824138998986,261.4049142916592,-2.4285790407657624,0.6393252038955689,5.640068682432175,261.4049142916592,-0.5632786560058594,2.7698400878906253,-3.795956268310547,261.40119129166123,-0.9760624766349792,1.395792841911316,-0.25407108664512634,261.4049142916592
2025-10-03 16:09:11.756703,-0.4566297182813287,0.8654448538273574,-9.761078100800514,261.56380129166064,-3.3809401971101765,7.410844733119012,-58.295350756645206,261.56380129166064,-27.072103271484377,3.2254925537109376,-30.737231597900394,261.56007829166265,1.1302353143692017,3.4050495624542236,1.7741104364395142,261.56380129166064
2025-10-03 16:09:11.886943,0.3369921777024865,0.024153093695640566,-9.804181435704232,261.68296729166104,-0.7583658899366856,-0.08133418500423432,13.80012125015259,261.68296729166104,3.3281790161132814,0.20327728271484377,-13.853391723632813,261.6792442916594,-1.7747273445129395,1.8921091556549072,0.5562155842781067,261.68296729166104
2025-10-03 16:09:12.023382,0.14025546250864865,0.0994366530328989,-9.808496680855752,261.8319242916623,-0.5700117248296738,0.7301382371038199,-0.5071547412872315,261.8319242916623,-0.91729248046875,0.866847381591797,-10.719508666992189,261.82820129166066,0.029766879975795746,0.04712698236107826,-0.03800627216696739,261.8319242916623
2025-10-03 16:09:12.157704,0.14928531764075162,0.09565017890185118,-9.808397862911225,261.9610202916592,0.4984177951142192,-0.32527267646044494,0.5853273367881775,261.9610202916592,0.6755451965332031,-0.21884490966796877,-9.184151458740235,261.95729729166123,0.00035628583282232285,-0.03405272588133812,0.00927916169166565,261.9610202916592
2025-10-03 16:09:12.293556,0.13939492595382036,0.09912649478763343,-9.808510714173318,262.1000456666625,0.022418599398806693,0.19082057548686862,-0.12947489619255068,262.1000456666625,0.2281256103515625,0.2920426940917969,-9.712103576660157,262.09632266666085,-0.014362928457558155,-0.017820456996560097,0.005142571404576302,262.1000456666625
2025-10-03 16:09:12.426080,0.129021965386346,0.10151370280422271,-9.808627073764802,262.2291416666594,0.1456568371038884,0.3620722743496299,-0.1877353835105896,262.2291416666594,0.3351530456542969,0.4834945678710938,-9.731563110351564,262.2254186666614,-0.020499074831604958,-0.0007912253495305777,-0.006446510087698698,262.2291416666594
2025-10-03 16:09:12.559106,0.11148859589360655,-0.13043799656443297,-9.808500189185143,262.36816766666016,0.7610469844937325,0.013531105695292355,1.190919953584671,262.36816766666016,0.9240284729003907,-0.08816665649414063,-8.556656341552735,262.36444466666217,0.07272987067699432,0.009191351942718029,-0.3221183121204376,262.36816766666016
2025-10-03 16:09:12.691213,0.1166043248679489,0.08709604044444859,-9.808923527598381,262.48733366666056,-4.710401447117329,-0.5565198594331742,8.726820842027665,262.48733366666056,-2.578238525390625,-0.3046165466308594,-6.235433349609376,262.48361066666257,-0.0630190521478653,-0.09941478818655014,0.04563426971435547,262.48733366666056
2025-10-03 16:09:12.823298,0.08293952892534436,0.10639694100245833,-9.80907380104065,262.6263596666613,0.15476616868749263,0.07936677052639425,-0.13654534935951235,262.6263596666613,0.34757720947265625,0.19384689331054689,-9.730814666748048,262.6226366666597,-0.003363325959071517,0.0029855535831302404,-0.0011381153017282486,262.6263596666613
2025-10-03 16:09:12.956297,0.07964845100417733,0.10740860980935395,-9.809089003801347,262.7653866666624,0.2993633898161352,-0.018343820990994575,-0.1208116614818573,262.7653866666624,0.456251220703125,0.035176849365234374,-9.712852020263673,262.76166366666075,0.0002760300412774086,-0.014573149383068085,0.00728383706882596,262.7653866666624
2025-10-03 16:09:13.086831,0.0861702891625464,0.1062082677986473,-9.809046903848648,262.88455166666245,-0.04500589096918702,-0.033908615699037914,0.1494840681552887,262.88455166666245,-0.08592132568359376,0.111368408203125,-9.654174041748048,262.8808286666608,0.018776729702949524,0.07714790850877762,0.01520382147282362,262.88455166666245
2025-10-03 16:09:13.214896,0.10592882570810616,0.10177930343896151,-9.808903062343598,263.0235786666599,0.14644638480618596,-0.15357156425714494,0.05952465534210205,263.0235786666599,0.24623794555664064,-0.0305364990234375,-9.911938018798828,263.0198556666619,0.007808656431734562,0.025901345536112785,-0.00013294024392962456,263.0235786666599
2025-10-03 16:09:13.350710,0.11552007749676706,0.09890052731148899,-9.808823540210724,263.1526752916616,0.2036163115873933,0.11395686093717813,0.00016839981079101564,263.1526752916616,0.26839187622070315,0.24324417114257812,-9.8435302734375,263.14895229165995,0.005722919944673777,0.0007365391938947141,-0.00211257953196764,263.1526752916616
2025-10-03 16:09:13.481256,0.10850523683242501,0.1006995511148125,-9.808884935975076,263.28177129166215,0.16557483818382027,-0.06851647616364062,-0.04767001032829285,263.28177129166215,0.27228378295898437,0.026794281005859375,-9.868079223632813,263.2780482916605,-0.0012978725135326385,-0.0010194231290370226,0.002906609093770385,263.28177129166215
2025-10-03 16:09:13.610100,0.11154080970212818,0.09986444081179797,-9.808859208226204,263.42079729165926,0.21717563923448324,-0.03924049065448344,0.028944886922836307,263.42079729165926,0.30326934814453127,0.07259902954101563,-9.809401245117188,263.41707429166127,0.0013287514448165894,-0.004833271261304617,0.0008180050645023584,263.42079729165926
2025-10-03 16:09:13.743797,0.10267664090730251,0.10153460660018028,-9.808938145637512,263.5498932916598,0.19969458404928447,-0.17069078642874957,0.03576040148735046,263.5498932916598,0.3254232788085938,-0.09654922485351564,-9.819430389404298,263.54617029166184,-0.005946973338723183,-0.018943650647997856,-0.002309557516127825,263.5498932916598
2025-10-03 16:09:13.876461,0.09771537892520428,0.10058632526546717,-9.808998956680298,263.6789892916604,0.21064338572323324,0.08098610208369791,0.021600784063339235,263.6789892916604,0.28949798583984376,0.19983444213867188,-9.797276458740235,263.6752662916624,7.128436118364334e-05,-0.003196456003934145,0.00171558721922338,263.6789892916604
2025-10-03 16:09:14.008139,0.1022126917541027,0.09445671650581063,-9.809015328884126,263.808085291661,0.11543473555706442,-0.3053680965676904,-0.0020348310470581056,263.808085291661,0.2281256103515625,-0.2424957275390625,-9.809251556396484,263.80436229165934,0.006545954383909702,0.00767561374232173,0.008746374398469925,263.808085291661
2025-10-03 16:09:14.134214,0.11854310626164079,0.08303481113165617,-9.80893112897873,263.93718129166155,0.14371151413768532,0.3429792879894376,0.2942681443691254,263.93718129166155,0.05912704467773438,0.4700225830078125,-9.662855987548829,263.9334582916599,0.004049338400363922,0.004142255522310734,0.013027070090174675,263.93718129166155
2025-10-03 16:09:14.265488,0.12060784947127104,0.0822748466860503,-9.808913002610208,264.0662772916621,0.12069035002961756,0.9841075904667378,-0.05557310700416565,264.0662772916621,0.2582130432128906,1.0747650146484375,-9.844278717041016,264.0625542916605,-0.005910592153668404,0.009326730854809284,0.0022071239072829485,264.0662772916621
2025-10-03 16:09:14.397123,0.12349725108593702,0.09956104340963066,-9.808718875050545,264.19537329165905,0.12214867302216591,0.6363904132694006,0.1747522258758545,264.19537329165905,0.15298187255859375,0.7331753540039063,-9.50867660522461,264.20158029166123,-0.006936244200915098,0.006758630275726318,0.019177444279193878,264.2053032916592
