timestamp,gravity_x,gravity_y,gravity_z,gravity_time,lin_acc_x,lin_acc_y,lin_acc_z,lin_acc_time,acc_x,acc_y,acc_z,acc_time,gyro_x,gyro_y,gyro_z,gyro_time
2025-10-03 16:12:53.974704,0.24904323862865568,0.06780100994277746,-9.806604521870614,483.7703649166615,0.003331944476813078,0.00030735797714442014,0.007381525039672852,483.7703649166615,0.25387207031250003,0.06795867919921875,-9.801168365478516,483.76664191665986,-0.0018645226955413818,-0.003027531085535884,-0.0007650977931916714,483.7703649166615
2025-10-03 16:12:54.118979,0.2490169444307685,0.06756777912843973,-9.806603937149049,483.9193239166598,0.007998534198850394,-5.8179795742034914e-05,0.003491957187652588,483.9193239166598,0.2532733154296875,0.06301895141601563,-9.80236587524414,483.9156009166618,0.0005038222298026085,0.000997058697976172,0.0009796633385121822,483.9193239166598
2025-10-03 16:12:54.278259,0.24882862754166127,0.06772937241476029,-9.806611538529397,484.07821291666187,-0.0015428061224520208,-0.00021974110510200264,0.016219006776809694,484.07821291666187,0.24533981323242188,0.06466552734375,-9.793085174560547,484.07448991666024,0.00018217740580439568,-0.0005890121683478355,0.0008394483011215925,484.07821291666187
2025-10-03 16:12:54.422673,0.24836307954043152,0.06799587754067034,-9.806617970466615,484.22717191666015,0.002964245975017548,-0.0030309818917885426,0.01368423879146576,484.22717191666015,0.2540217590332031,0.06855743408203126,-9.795929260253907,484.22344891666216,0.0026358827017247677,-0.0027706478722393513,0.0014805474784225225,484.22717191666015
2025-10-03 16:12:54.570842,0.24845937587320807,0.0683968686265871,-9.806615046858788,484.3661995833281,-0.001622693706303835,0.003753090184181929,0.01188271164894104,484.3661995833281,0.24414230346679688,0.07604187011718751,-9.793983306884765,484.3624765833265,-0.0002177925780415535,0.00032528999145142734,-0.0006851349025964737,484.3661995833281
2025-10-03 16:12:54.723584,0.24854474522173406,0.06868231781758369,-9.806609784364701,484.5151585833264,-0.004103082586079836,-0.006262130420655013,0.01083079755306244,484.5151585833264,0.24548950195312502,0.06451583862304688,-9.79128890991211,484.5114355833284,0.0024618934839963913,0.0011730506084859371,0.0016344008035957813,484.5151585833264
2025-10-03 16:12:54.857629,0.24858253285288812,0.0684112856676802,-9.806612707972526,484.65418758332817,0.0006491871178150177,-0.003147003441117704,0.004395936727523804,484.65418758332817,0.2477348327636719,0.06960525512695313,-9.805958404541016,484.65046458332654,-0.0006344378925859928,7.240826380439103e-05,0.0009823399595916271,484.65418758332817
2025-10-03 16:12:55.013988,0.24880224198102951,0.06887081743218006,-9.806603937149049,484.8130765833266,-0.0025642598792910577,-0.005253101997077465,0.0061828458309173585,484.8130765833266,0.24578887939453126,0.06616241455078126,-9.79997085571289,484.80935358332863,-0.0010351571254432201,0.0013943653320893645,0.001076956745237112,484.8130765833266
2025-10-03 16:12:55.155445,0.2491350399143994,0.06927359465975315,-9.806590488553047,484.96203558332854,-0.0002027156576514244,-0.004757756036706269,-0.0025102096796035768,484.96203558332854,0.2424957275390625,0.06676116943359375,-9.805060272216798,484.9583125833269,-0.0008668326772749424,-0.0005402547540143132,-0.001537354663014412,484.96203558332854
2025-10-03 16:12:55.296490,0.24916710823774338,0.06860703034792096,-9.806593412160874,485.1010635833263,-0.005174530036747456,-0.0015464971773326399,0.007971509099006653,485.1010635833263,0.24683670043945313,0.06496490478515625,-9.799222412109376,485.09734058332833,0.00025265710428357124,0.0018822115380316973,0.002310257637873292,485.1010635833263
2025-10-03 16:12:55.431489,0.24923433294519784,0.06865841732360423,-9.80659516632557,485.24009158332774,-0.004792615491896868,0.00034809205681085587,0.015005124807357788,485.24009158332774,0.24758514404296877,0.07214996337890625,-9.797126770019531,485.2363685833261,0.00028900662437081337,0.0002897540107369423,-0.0021338737569749355,485.24009158332774
2025-10-03 16:12:55.607471,0.2490783401951194,0.06860940577927978,-9.806595751047135,485.39898095832905,-0.001493232697248459,0.0027921002916991714,0.0004894119501113892,485.39898095832905,0.2501298522949219,0.07020401000976563,-9.802665252685548,485.3952579583274,2.5472603738307953e-05,-0.0021381673868745565,-0.0009719007648527622,485.39898095832905
2025-10-03 16:12:55.766264,0.2485724098607898,0.0690480565885082,-9.80660861492157,485.55787095832784,0.005000319555401802,-0.00019123592879623176,0.005289391279220582,485.55787095832784,0.24923171997070315,0.07229965209960938,-9.80131805419922,485.5541479583262,9.031640365719795e-05,-5.3325522458180785e-05,0.0001360778696835041,485.55787095832784
2025-10-03 16:12:55.927830,0.24823963019996884,0.06892509147059173,-9.806616216301919,485.7266909583268,-0.0006545409746468067,0.0018776688538491727,0.014130381345748903,485.7266909583268,0.25237518310546875,0.07140151977539062,-9.793234863281251,485.7229679583288,0.0015176334418356419,0.000506521319039166,0.00016949744895100594,485.7266909583268
2025-10-03 16:12:56.067525,0.2487375388853252,0.0690125393215567,-9.806601013541222,485.8756489583284,-0.007738735098391771,0.0016405185777693988,0.016661641001701356,485.8756489583284,0.24533981323242188,0.06915618896484375,-9.78455291748047,485.87192595832676,0.0015426329337060452,-0.0012767943553626537,-0.0010540629737079144,485.8756489583284
2025-10-03 16:12:56.199564,0.2493055227957666,0.06834013693034649,-9.806592242717743,486.004746958326,-0.003965746108442545,0.005905463970266283,0.010215085744857789,486.004746958326,0.24938140869140626,0.07379653930664062,-9.79607894897461,486.001023958328,0.00041138241067528725,-0.0004736133269034326,0.001867152750492096,486.004746958326
2025-10-03 16:12:56.355462,0.24964668955653907,0.06851690100040288,-9.80658522605896,486.13384495832724,0.007219191715121269,0.00033991509117186074,0.009157909154891968,486.13384495832724,0.25836273193359377,0.07319778442382813,-9.801168365478516,486.13012195832925,-0.0001848144456744194,-0.0028883484192192554,-0.002294265665113926,486.13384495832724
2025-10-03 16:12:56.494399,0.2507708167657256,0.0687872524978593,-9.806551896929742,486.3026640833268,0.004897481650114059,-0.006067696795798838,0.009875362515449524,486.3026640833268,0.2483335876464844,0.05912704467773438,-9.793234863281251,486.2989410833288,-0.0010686428286135197,-0.0005765146343037486,0.002743991557508707,486.3026640833268
2025-10-03 16:12:56.644926,0.250665621701628,0.06929493699688465,-9.80654955804348,486.43176208332807,-0.0027811550348997116,0.001208441318012774,0.018107657432556153,486.43176208332807,0.24998016357421876,0.07439529418945313,-9.790390777587891,486.42803908332644,0.00042209867388010025,-0.0001339815353276208,-2.6086345314979553e-06,486.43176208332807
2025-10-03 16:12:56.800890,0.25097461050376296,0.06944847208913416,-9.806543126106263,486.600582083327,0.0011011951602995396,-0.0025376185029745103,0.011511998176574707,486.600582083327,0.24983047485351564,0.06780899047851563,-9.79128890991211,486.59685908332904,0.0014307745732367039,0.0010848294477909803,0.0024608413223177195,486.600582083327
2025-10-03 16:12:56.952039,0.25148878175765277,0.06941807113587857,-9.806533185839653,486.74954108332895,0.0023833433724939823,-0.000261873034760356,-0.0006256520748138428,486.74954108332895,0.25387207031250003,0.06721023559570313,-9.803713073730469,486.7458180833273,0.0003592423163354397,0.0007436700398102403,-0.000972104724496603,486.74954108332895
2025-10-03 16:12:57.138188,0.2517183580622077,0.06931656255852431,-9.80652266085148,486.9382220833286,-0.0023369859158992768,-0.00045976473949849606,-0.000630914568901062,486.9382220833286,0.24938140869140626,0.06975494384765625,-9.806856536865235,486.93449908332695,-0.00029286788776516914,-0.0010645592119544744,0.0009801171254366636,486.9382220833286
2025-10-03 16:12:57.267243,0.25245909065008165,0.06845495705958456,-9.806513305306435,487.07725008332636,-0.0014310694858431817,-0.004388175462372601,0.013277857303619385,487.07725008332636,0.24923171997070315,0.06721023559570313,-9.79278579711914,487.0735270833284,0.0004027881659567356,0.0027882035356014967,0.0006691946182399988,487.07725008332636
2025-10-03 16:12:57.452738,0.25237072460353377,0.06813362971879543,-9.806514474749566,487.24607008332896,-0.004336550943553448,0.009704491342417897,0.006845335364341737,487.24607008332896,0.25117767333984375,0.07080276489257813,-9.79847396850586,487.24234708332733,-0.0009646392427384853,0.0008852026658132672,0.001556656090542674,487.24607008332896
2025-10-03 16:12:57.600007,0.2522490111552179,0.06804934301879258,-9.80652383029461,487.4049587083282,0.002221850585192442,0.0006577980564907193,0.006999117136001588,487.4049587083282,0.25237518310546875,0.06810836791992188,-9.79128890991211,487.40123570832657,-0.0014800375793129206,0.0007672121282666922,-0.001355673186480999,487.4049587083282
2025-10-03 16:12:57.751578,0.2520622839778662,0.06820296947378665,-9.80652616918087,487.5539177083265,0.00046262439340353015,0.0014022993575781584,0.005056672096252442,487.5539177083265,0.24399261474609377,0.07035369873046875,-9.79802490234375,487.5501947083285,6.185611709952354e-05,-0.0003048698417842388,-0.0003656377084553242,487.5539177083265
2025-10-03 16:12:57.969621,0.2518193138949573,0.06851957336068154,-9.806529677510262,487.7525287083263,-0.0003422265686094761,0.004827904351986945,-0.0016758120059967043,487.7525287083263,0.2505789184570313,0.07409591674804687,-9.805509338378906,487.7488057083283,-0.0005577481351792812,0.0007737339474260807,0.00018745847046375275,487.7525287083263
2025-10-03 16:12:58.139598,0.2513313454762101,0.06848736342508346,-9.806539033055307,487.93127970832575,0.0011934715323150158,-0.0003790137777104974,0.010312149524688721,487.93127970832575,0.25626708984375,0.07065307617187501,-9.795031127929688,487.92755670832776,0.001478197518736124,0.0017233111429959536,0.0007990952581167221,487.93127970832575
2025-10-03 16:12:58.292511,0.25133214946836235,0.06891329654026777,-9.80653610944748,488.09016870832784,-0.0023998252116143705,-0.002152140811085701,0.011357046961784363,488.09016870832784,0.24623794555664064,0.06661148071289062,-9.80236587524414,488.0864457083262,0.00012474693357944489,0.0015978141454979777,0.0033612120896577835,488.09016870832784
2025-10-03 16:12:58.435842,0.2517122002132237,0.06883914653677493,-9.806530262231828,488.2391277083261,-0.002330754976719618,-0.005221421965397895,0.00910294532775879,488.2391277083261,0.2465373229980469,0.07020401000976563,-9.798324279785156,488.23540470832813,-0.0005979929119348526,-0.00010197309893555939,0.000584733672440052,488.2391277083261
2025-10-03 16:12:58.567257,0.25143900733441116,0.06897370558697731,-9.806533185839653,488.37815566666177,-0.0017582760192453861,-0.0032603754708543423,0.006414395570755006,488.37815566666177,0.2472857666015625,0.06915618896484375,-9.800719299316407,488.37443266666014,0.0013442998751997948,-0.0001065297401510179,0.0016598873771727085,488.37815566666177
2025-10-03 16:12:58.718074,0.25165597558021546,0.06859466440044344,-9.806533185839653,488.51718366665955,-0.0001788882538676262,0.0004118449799716473,0.007759255170822144,488.51718366665955,0.25222549438476566,0.06586303710937501,-9.799821166992189,488.51346066666156,0.0015023425221443176,-0.0013431806582957506,0.002898905426263809,488.51718366665955
2025-10-03 16:12:58.846401,0.2517153430916369,0.06897774382028729,-9.80652616918087,488.65621166666097,0.000809492189437151,0.0006274976022541523,0.015837768316268923,488.65621166666097,0.25387207031250003,0.07274871826171875,-9.79368392944336,488.65248866665934,0.00028445571660995483,-0.0004884856753051281,0.0008957746904343367,488.65621166666097
2025-10-03 16:12:59.007899,0.2526631584763527,0.06828035371843726,-9.806509796977045,488.80516966666255,-0.0020842034742236137,-0.0021179300313815476,0.005938432216644287,488.80516966666255,0.25102798461914066,0.06750961303710938,-9.802066497802734,488.8014466666609,-0.0002132500521838665,-0.0002449307939969003,-0.0012686299160122871,488.80516966666255
2025-10-03 16:12:59.135701,0.2529823433607817,0.06778697662521153,-9.806505119204521,488.94419866666067,-0.010785956718027592,0.0003213958628475666,9.589433670043946e-05,488.94419866666067,0.23905288696289065,0.06661148071289062,-9.802515563964844,488.94047566665904,-0.00019387714564800262,-0.000595269026234746,-0.002307264134287834,488.94419866666067
2025-10-03 16:12:59.275454,0.25306336384266614,0.06818556487094611,-9.80649927198887,489.0732956666616,-0.006675729565322399,0.0021681292913854123,0.008174407482147218,489.0732956666616,0.24743545532226563,0.07289840698242188,-9.80131805419922,489.06957266665995,0.0009998884052038193,0.0003293096669949591,-0.0013771583326160908,489.0732956666616
2025-10-03 16:12:59.418138,0.25318864043802025,0.06911670198664069,-9.80648933172226,489.21232366665936,-0.0029090994223952295,0.00153636961709708,-0.0008162713050842285,489.21232366665936,0.24683670043945313,0.06795867919921875,-9.804611206054688,489.20860066666137,-0.0005738460458815098,0.0004247436299920082,0.00021130871027708054,489.21232366665936
2025-10-03 16:12:59.581300,0.2533849972486496,0.0690688553173095,-9.806487577557565,489.39107404166134,-0.015529565233737231,0.0024823760194703937,0.005465977191925049,489.39107404166134,0.2369572448730469,0.07334747314453126,-9.803413696289063,489.3873510416597,0.0020006708800792694,0.0003752736374735832,0.000239622313529253,489.39107404166134
2025-10-03 16:12:59.740479,0.2530883789621294,0.06882492592558265,-9.806491670608521,489.53010304165946,-0.0002641662396490574,-0.00041718970052897933,0.009067277312278748,489.53010304165946,0.24923171997070315,0.06945556640625,-9.79607894897461,489.52638004166147,-0.001526398817077279,-0.0016681455308571458,0.0004822472110390663,489.53010304165946
2025-10-03 16:12:59.886466,0.25371386658400297,0.06938116972334683,-9.806475298404694,489.68899204166155,0.0009067021496593952,-0.0020212271343916658,0.012339963912963868,489.68899204166155,0.2559677124023438,0.07095245361328126,-9.794731750488282,489.6852690416599,-0.000836497638374567,-0.0006716004572808743,-0.0004971497692167759,489.68899204166155
2025-10-03 16:13:00.047916,0.2538003140129149,0.06971966412384063,-9.80646828174591,489.84788104166,-0.001574837900698185,-0.003706947430036962,0.006947076916694641,489.84788104166,0.25581802368164064,0.0664617919921875,-9.797276458740235,489.844158041662,0.0012726495042443275,0.001962847076356411,-0.002372797578573227,489.84788104166
2025-10-03 16:13:00.197452,0.2537560944445431,0.06934917905833572,-9.806471790075303,489.9869090416614,-0.0036262786947190762,0.0007051330944523215,0.016830040812492373,489.9869090416614,0.24743545532226563,0.06975494384765625,-9.78844482421875,489.9831860416598,-2.583768218755722e-05,0.001882363692857325,0.00017941882833838463,489.9869090416614
2025-10-03 16:13:00.371261,0.2535822494141758,0.06915781522169709,-9.806481145620346,490.1557290416604,-0.001805766373872757,-0.0007500424515455962,0.012046433687210084,490.1557290416604,0.2561174011230469,0.0664617919921875,-9.797725524902344,490.1520060416624,-0.00030768848955631256,0.0011120513081550598,0.002456807531416416,490.1557290416604
2025-10-03 16:13:00.525086,0.2540168619900942,0.06932826155796648,-9.806466527581215,490.3245487083259,0.0018011616915464402,0.0020732582174241543,0.013979523181915284,490.3245487083259,0.25267456054687504,0.0688568115234375,-9.792636108398439,490.3208257083279,-0.0003303508274257183,-0.002206279896199703,-0.0004953881725668907,490.3245487083259
2025-10-03 16:13:00.698616,0.25381114963442086,0.06886666042730212,-9.806473544239998,490.4735067083275,-8.878631517291069e-05,0.0034329871041700244,0.014886426329612732,490.4735067083275,0.25312362670898436,0.07589218139648438,-9.790540466308594,490.46978370832585,-4.762830212712288e-05,0.0016342909075319767,-0.001021060161292553,490.4735067083275
2025-10-03 16:13:00.835053,0.2538335883244872,0.06900113725103438,-9.806474713683128,490.63239670832627,-0.0077452766709029675,0.0004544519959017635,0.005304594039916993,490.63239670832627,0.24279510498046877,0.07229965209960938,-9.80281494140625,490.6286737083283,0.0010491590946912766,-0.001664354233071208,-0.00023466721177101135,490.63239670832627
2025-10-03 16:13:01.017250,0.25402884878218174,0.06879947226494551,-9.806472374796869,490.8210777083259,-0.008090225849300624,0.0023026929097250104,0.012785521745681764,490.8210777083259,0.24998016357421876,0.07259902954101563,-9.797276458740235,490.8173547083279,0.0005983863957226276,0.0004356311110313982,-0.0012322217226028442,490.8210777083259
2025-10-03 16:13:01.161780,0.25387091914191845,0.06920284791849554,-9.806470035910607,490.9601057083273,-0.005088265333324671,0.006240258179605007,-0.0005356049537658692,490.9601057083273,0.25342300415039065,0.077838134765625,-9.804311828613281,490.95638270832933,-0.0012097829021513462,-8.724437793716788e-05,-0.0010263146832585335,490.9601057083273
2025-10-03 16:13:01.305671,0.2538046446070075,0.06905096192378551,-9.806474713683128,491.09913370832874,-0.0002319151908159256,-0.002738849516026676,0.008897123336791993,491.09913370832874,0.2552192687988281,0.06661148071289062,-9.806407470703126,491.0954107083271,0.0006581335328519344,0.0008455498609691858,0.0008536465466022491,491.09913370832874
2025-10-03 16:13:01.451397,0.25387683944776657,0.06859187326859684,-9.806472959518434,491.2381617083265,-0.005543288346379995,0.0031090148119255904,0.021472730040550232,491.2381617083265,0.24533981323242188,0.06960525512695313,-9.787546691894532,491.2344387083285,-0.0018611028790473938,0.0022161733359098434,0.000529151875525713,491.2381617083265
2025-10-03 16:13:01.616218,0.254098668191582,0.06900525771081448,-9.806468866467476,491.4169118333266,-0.0014240528270602227,-0.004190023373812437,0.006944153308868409,491.4169118333266,0.2520758056640625,0.06361770629882812,-9.79847396850586,491.4131888333286,-0.0012305197305977345,-0.0011103624710813165,-0.0006195362657308578,491.4169118333266
2025-10-03 16:13:01.755315,0.2543333608098328,0.06954627133905888,-9.806455417871476,491.54600983332784,-0.0030060170218348505,-0.003832922950387001,0.013370828032493592,491.54600983332784,0.24818389892578127,0.06855743408203126,-9.797725524902344,491.5422868333262,-0.002302828710526228,-0.0008311966666951776,0.0015556260477751493,491.54600983332784
2025-10-03 16:13:01.904692,0.25404836386442187,0.06970664950087667,-9.806461265087128,491.7048988333263,-0.0012241328693926336,-0.0014486065646633507,0.006192201375961304,491.7048988333263,0.24983047485351564,0.07229965209960938,-9.801467742919922,491.7011758333283,0.00018887128680944443,-0.00032343846396543086,0.00016328971832990646,491.7048988333263
2025-10-03 16:13:02.032390,0.25417956076562404,0.06996280779596419,-9.806457172036172,491.83399683332755,-0.004049708470702172,0.0011393436742946506,0.011576317548751831,491.83399683332755,0.2483335876464844,0.07065307617187501,-9.797575836181641,491.8302738333259,-0.0009551802650094032,0.0018234928138554096,0.003239401150494814,491.83399683332755
2025-10-03 16:13:02.192638,0.2538901601359248,0.06975547831971199,-9.80646477341652,491.992885833326,-0.003910033106803894,-0.007484970507211984,0.0012559819221496583,491.992885833326,0.2483335876464844,0.062120819091796876,-9.802665252685548,491.989162833328,0.00029560504481196404,-0.0007584466366097331,0.0015736748464405537,491.992885833326
2025-10-03 16:13:02.356302,0.25380440706387164,0.06970690074842424,-9.806471205353738,492.1617058333286,-0.006518549099564553,0.000497127533890307,0.01607750415802002,492.1617058333286,0.2508782958984375,0.0712518310546875,-9.795180816650392,492.15798283332697,-0.0004304642789065838,0.0003635091707110405,0.0014601470902562141,492.1617058333286
2025-10-03 16:13:02.501775,0.2533324088528752,0.06905613762326539,-9.806485238671304,492.3007335833281,-0.002304424233734608,-0.004091232838109136,0.003820570707321167,492.3007335833281,0.250279541015625,0.06256988525390625,-9.801767120361328,492.2970105833265,0.0028541041538119316,-0.002102270955219865,-0.0018021739087998867,492.3007335833281
2025-10-03 16:13:02.730532,0.2533983362093568,0.06932718804571777,-9.806481730341911,492.53906758332596,-0.008357918690890075,0.005517163169570268,0.010253092646598816,492.53906758332596,0.243094482421875,0.07110214233398438,-9.800120544433595,492.53534458332797,0.0005197846330702305,0.00018117635045200586,-0.00027448870241642,492.53906758332596
2025-10-03 16:13:02.886946,0.2534030322544277,0.06924402510747314,-9.806481145620346,492.6780955833274,-0.004919792432338,0.0029059291351586584,0.010103988647460939,492.6780955833274,0.25042922973632814,0.07110214233398438,-9.796677703857423,492.67437258332575,0.0008094646036624908,-0.00019628301379270852,-0.0012892158702015877,492.6780955833274
2025-10-03 16:13:03.048248,0.2534799596853554,0.06844918750226497,-9.806485823392869,492.83698458332583,0.002188375275582075,-0.0036339714378118516,0.0029224383831024173,492.83698458332583,0.25462051391601564,0.067060546875,-9.803563385009767,492.83326158332784,0.0024638883769512177,-0.0015563690103590488,0.0011205729097127914,492.83698458332583
2025-10-03 16:13:03.184778,0.2535984206199646,0.06826215882785619,-9.806486992836,492.9958735833279,-0.009905128497630358,0.002091558175161481,0.01324979066848755,492.9958735833279,0.24279510498046877,0.0712518310546875,-9.788145446777344,492.9921505833263,-0.00042996834963560104,0.0017528485041111708,0.0008391414303332567,492.9958735833279
2025-10-03 16:13:03.377122,0.2528967364691198,0.06753438147716224,-9.806507458090783,493.18455458332755,-0.009802254047244788,0.004914963911287487,0.010878159999847413,493.18455458332755,0.24414230346679688,0.06930587768554688,-9.79278579711914,493.1808315833259,0.0014158696867525578,0.00017022405518218875,-0.000521206296980381,493.18455458332755
2025-10-03 16:13:03.530431,0.2526328808628023,0.06768967987038195,-9.806514474749566,493.313652958328,-0.008108809031546116,0.006841904693283141,0.016573348045349122,493.3235839583285,0.24219635009765625,0.07694000244140625,-9.793085174560547,493.3198609583269,-0.001283896155655384,-0.0021435099188238382,0.0007905694656074047,493.3235839583285
2025-10-03 16:13:03.657275,0.25254668924957513,0.06770129207521677,-9.806516813635827,493.4626119583263,-0.009601859003305435,-0.005281090973876417,0.006693892478942871,493.4626119583263,0.2411485290527344,0.06301895141601563,-9.799372100830078,493.4588889583283,0.001773507334291935,0.0011397494236007333,-0.0009064041078090668,493.4626119583263
2025-10-03 16:13:03.801114,0.25220150252804163,0.06750626002438367,-9.80652616918087,493.6016399583277,-0.0025207163952291013,0.004494010065682233,0.01119507908821106,493.6016399583277,0.24743545532226563,0.07319778442382813,-9.795779571533204,493.5979169583261,-0.0010551982559263706,-0.0020885965786874294,0.0013953882735222578,493.6016399583277
2025-10-03 16:13:03.969587,0.25209223268553616,0.06723238192498684,-9.806527338624,493.7704599583267,0.007617642916738988,0.003420675974339247,0.010151935815811157,493.7704599583267,0.2540217590332031,0.0688568115234375,-9.79847396850586,493.7667369583287,0.00010433327406644821,0.002552610356360674,0.0005517827812582254,493.7704599583267
2025-10-03 16:13:04.127864,0.2522475858964026,0.06764123934321106,-9.80652616918087,493.9392799583293,0.0037202178686857224,0.008550346903502941,-0.0003332912921905518,493.9392799583293,0.25462051391601564,0.0724493408203125,-9.79997085571289,493.93555695832765,0.0003962279297411442,-0.00011095590889453888,0.0005291793495416641,493.9392799583293
2025-10-03 16:13:04.293012,0.25185328256338835,0.06781372306868434,-9.806531431674959,494.07830795832706,-0.0012744006514549256,0.004485929030925036,0.0064114719629287725,494.07830795832706,0.25312362670898436,0.07529342651367188,-9.793384552001953,494.07458495832907,-0.0020794845186173916,-0.0014848995488137007,0.0012478420976549387,494.07830795832706
2025-10-03 16:13:04.426494,0.25108165109530095,0.06784573200624436,-9.80654955804348,494.22726595832864,-0.006490354556590319,0.009393629604019226,0.007030107378959656,494.22726595832864,0.24069946289062502,0.0724493408203125,-9.80086898803711,494.223542958327,0.0010000038892030716,0.000880700652487576,-0.0003909571096301079,494.22726595832864
2025-10-03 16:13:04.585918,0.2512327102571726,0.06756085840053856,-9.806550142765046,494.37622454166194,-0.0027494338899850847,0.008481011716648936,0.015710299015045167,494.37622454166194,0.24698638916015625,0.07379653930664062,-9.794282684326172,494.3725015416603,0.0005601956509053707,-0.0005713513237424195,-5.31589612364769e-05,494.37622454166194
2025-10-03 16:13:04.718023,0.250983947776258,0.06727667458355427,-9.806556574702263,494.5152525416597,-0.002201348785310984,0.0023285577027127146,0.006737161874771119,494.5152525416597,0.24489074707031253,0.06960525512695313,-9.80236587524414,494.51152954166173,-0.00036634691059589386,0.0009983694180846214,-0.0021447502076625824,494.5152525416597
2025-10-03 16:13:04.870555,0.25058006962761287,0.06713683476671577,-9.806567099690438,494.66421154166164,-0.010629086885601283,0.008156582610681654,0.00046134531497955323,494.66421154166164,0.2436932373046875,0.07708969116210938,-9.812245330810548,494.66048854166,-0.0009526354260742664,0.0013484833762049675,0.0006571991834789515,494.66421154166164
2025-10-03 16:13:05.019304,0.2502970278449357,0.06790970419999212,-9.806573531627656,494.8231005416601,0.004772607050836086,0.0009471210278570653,0.007498469352722168,494.8231005416601,0.24638763427734375,0.06810836791992188,-9.802216186523438,494.8193775416621,-0.002300544176250696,-0.001212330418638885,0.0009407317265868187,494.8231005416601
2025-10-03 16:13:05.136335,0.25051054257899524,0.06777876311447471,-9.806565930247308,494.94226754166084,-0.002626039367169142,-0.004011368094943464,0.008242819905281067,494.94226754166084,0.24953109741210938,0.06481521606445313,-9.801018676757813,494.9385445416592,0.001944300252944231,0.002761065261438489,0.0004937336780130863,494.94226754166084
2025-10-03 16:13:05.262000,0.25021178640425207,0.06738969486672432,-9.806577624678612,495.0713655416621,0.005456548556685448,0.009101241412572562,0.004809919595718384,495.0713655416621,0.2568658447265625,0.07828720092773438,-9.801916809082032,495.06764254166046,-0.0018586528021842241,0.0008684623753651977,0.0007539361249655485,495.0713655416621
2025-10-03 16:13:05.399221,0.25013453006744385,0.06769934604875744,-9.806578794121743,495.2004635416597,0.005234482269734144,0.00564814536832273,0.005408674478530884,495.2004635416597,0.2528242492675781,0.07080276489257813,-9.799521789550782,495.1967405416617,-0.0014539794065058231,-0.0018839517142623663,-0.000733871478587389,495.2004635416597
2025-10-03 16:13:05.534702,0.2504743629321456,0.06825149679556489,-9.806564176082611,495.3394915416611,-0.009026474710553884,-0.0005922041740268469,0.008539858460426332,495.3394915416611,0.24474105834960938,0.06586303710937501,-9.797725524902344,495.3357685416595,-0.001194668933749199,-0.0004270002245903015,-0.0020034057088196278,495.3394915416611
2025-10-03 16:13:05.666929,0.25062971614301205,0.06881708700209857,-9.806554820537567,495.46858854166203,-0.009032157473266125,0.004530363301746548,0.0028435009717941283,495.46858854166203,0.24204666137695313,0.07604187011718751,-9.804611206054688,495.4648655416604,-0.0008991425856947899,-0.0006600258057005703,-0.0006989375688135624,495.46858854166203
2025-10-03 16:13:05.800717,0.2508148536086083,0.0685049918666482,-9.806555405259132,495.59768654165964,0.002458516638725996,0.001399668110534549,0.009726258516311646,495.59768654165964,0.2532733154296875,0.06616241455078126,-9.798773345947266,495.59396354166165,0.0015961485914885998,-0.0006038390565663576,-0.000709825661033392,495.59768654165964
2025-10-03 16:13:05.932562,0.2505863919295371,0.06835681976750493,-9.806561252474784,495.73671454166106,-0.008539730552583934,-0.0024937826581299307,0.005541990995407105,495.73671454166106,0.2429447937011719,0.06795867919921875,-9.804760894775391,495.73299154165943,-0.0013896350283175707,-0.00036817797808907926,-0.0017901547253131866,495.73671454166106
2025-10-03 16:13:06.058885,0.2500916443951428,0.06834100030828268,-9.806574116349221,495.8658125416623,-0.0032549439556896686,-0.001579835442826152,-0.003426468372344971,495.8658125416623,0.24698638916015625,0.067060546875,-9.80955093383789,495.8620895416607,-0.0013627703301608562,0.0021010800264775753,0.0009827304165810347,495.8658125416623
2025-10-03 16:13:06.186932,0.2499653079919517,0.06874588801525533,-9.806575285792352,495.9949105416599,0.001960808951407671,-0.0030325441947206856,0.007651666402816773,495.9949105416599,0.2520758056640625,0.07065307617187501,-9.799222412109376,495.99118754166193,-0.00021784519776701927,-0.00041262785089202225,-0.002434873953461647,495.9949105416599
2025-10-03 16:13:06.319010,0.2498630182631314,0.06857978140935302,-9.806579378843308,496.11407754166066,-0.0016790827922523023,-0.00032171563245356086,0.006158287525177002,496.11407754166066,0.2507286071777344,0.06840774536132813,-9.800120544433595,496.11035454165904,8.093146607279778e-05,0.0013680951669812202,-0.000696270726621151,496.11407754166066
2025-10-03 16:13:06.474035,0.2492781505174935,0.06942580956034362,-9.806587564945222,496.27296670832584,-0.0049861217848956585,0.007214824575930834,0.01170495629310608,496.27296670832584,0.24189697265625001,0.07589218139648438,-9.796827392578125,496.26924370832785,-0.0021399767138063908,0.0018554492853581905,-0.000119777861982584,496.27296670832584
2025-10-03 16:13:06.616637,0.24939630081877115,0.06941717578098178,-9.806582302451135,496.42192570832776,-0.00031432438641786574,-0.00011132093612104655,0.003320049047470093,496.42192570832776,0.247884521484375,0.06780899047851563,-9.797875213623048,496.41820270832613,0.0003302586264908314,0.0018366231815889478,-0.0012597017921507359,496.42192570832776
2025-10-03 16:13:06.747249,0.25009275902062655,0.06922847516834736,-9.806565345525742,496.551023708329,0.002581746708601713,-0.006209551161155105,0.012434688806533815,496.551023708329,0.24863296508789065,0.0688568115234375,-9.793085174560547,496.5473007083274,-0.0025550981517881155,-0.00024819158716127276,0.0007759416475892067,496.551023708329
2025-10-03 16:13:06.876268,0.24975111717358234,0.06895815564785153,-9.806577039957046,496.6801207083263,-0.0020163209550082685,0.002293670838698745,0.002865135669708252,496.6801207083263,0.2496807861328125,0.07065307617187501,-9.804760894775391,496.6763977083283,0.0003191716969013214,-0.0018291861051693559,0.0005201022140681744,496.6801207083263
2025-10-03 16:13:06.993342,0.24941475609317423,0.06859352693427355,-9.806586980223656,496.79928770832703,-0.0048232951015234,0.0050946104759350425,-0.000716283917427063,496.80921870832753,0.24683670043945313,0.0688568115234375,-9.803862762451173,496.8054957083259,0.0023591099306941032,-0.0008750995039008558,-0.0008724993094801903,496.80921870832753
2025-10-03 16:13:07.135957,0.24933399142697454,0.0687419548491016,-9.806591657996178,496.94824670832895,-0.005491010583937169,0.009395575630478561,0.01380410671234131,496.94824670832895,0.24459136962890626,0.07858657836914062,-9.791139221191406,496.9445237083273,-0.0015590507537126541,-0.0014392610173672438,-0.00011942582204937935,496.94824670832895
2025-10-03 16:13:07.281731,0.24978908753022552,0.06883404392749072,-9.806579963564873,497.08727570832707,-0.0019045295007526877,0.0036152968928217888,0.000919182300567627,497.08727570832707,0.25042922973632814,0.06915618896484375,-9.80086898803711,497.0835527083291,-0.0015516933053731918,-0.0009953472763299942,-0.0024432330392301083,497.08727570832707
2025-10-03 16:13:07.695087,0.24952291131019594,0.06916276708245278,-9.806580548286439,497.49442979165906,-0.005829710550606251,0.005082820113748312,-0.000573611855506897,497.49442979165906,0.24698638916015625,0.0724493408203125,-9.805808715820312,497.49070679166107,0.0028003142215311527,-0.001784339314326644,-0.0013671056367456913,497.49442979165906
2025-10-03 16:13:08.058491,0.24981503454968335,0.06941179451532663,-9.806575285792352,497.8519317916616,-0.004624873492866755,-0.0023512430721893906,-0.0022289586067199708,497.8519317916616,0.24204666137695313,0.0700543212890625,-9.804760894775391,497.84820879166,0.002308973576873541,0.0007239285041578114,0.00030578766018152237,497.8519317916616
2025-10-03 16:13:08.189122,0.2499254738353193,0.06954000842291862,-9.806570023298264,497.9909597916594,-0.006082547809928656,0.0008136857394129038,-0.0037293541431427,497.9909597916594,0.2508782958984375,0.07080276489257813,-9.812245330810548,497.9872367916614,-0.002154985209926963,0.0006609393749386072,0.001653358107432723,497.9909597916594
2025-10-03 16:13:08.332164,0.24980531355366112,0.06938801736105234,-9.80657177746296,498.1299877916608,-0.00251960176974535,0.0008159743761643768,-0.0013308262825012208,498.1299877916608,0.24743545532226563,0.06825805664062501,-9.802515563964844,498.1262647916592,-0.0005907299928367138,0.001180042396299541,0.000818297965452075,498.1299877916608
2025-10-03 16:13:08.484234,0.24986133718863132,0.06943987942300738,-9.806570023298264,498.2888780416615,0.0037113008648157124,0.001362876333296299,0.0015115052461624147,498.2888780416615,0.24998016357421876,0.0736468505859375,-9.804611206054688,498.2851550416599,-0.002589048817753792,0.0005285580409690738,0.0017023284453898668,498.2888780416615
2025-10-03 16:13:08.610105,0.24987339707091452,0.0693694433150813,-9.806572362184525,498.41797604165913,0.01208184588700533,-0.001710146125406027,0.012738744020462036,498.41797604165913,0.2594105529785156,0.06631210327148437,-9.7956298828125,498.41425304166114,-0.0008879322558641434,-0.0010693424846976995,0.0015667211264371872,498.41797604165913
2025-10-03 16:13:08.732718,0.24968281438574197,0.06950068589765579,-9.806578209400177,498.5470740416604,-0.004492635056376457,-0.0054338997323066,0.004060306549072266,498.5470740416604,0.24533981323242188,0.06631210327148437,-9.795330505371094,498.5433510416624,-0.0021214785519987345,0.0016708422917872667,-0.0010670637711882591,498.5470740416604
2025-10-03 16:13:08.870891,0.249480427633971,0.06998340095859021,-9.806579378843308,498.67617204166163,-0.009978437963873148,0.0011187505116686226,0.006307976245880127,498.67617204166163,0.24069946289062502,0.06795867919921875,-9.799671478271485,498.67244904166,-0.0009600501507520676,0.003179432125762105,0.0007508613634854555,498.67617204166163
2025-10-03 16:13:09.020711,0.2496397825330496,0.06974746123887599,-9.806576455235481,498.8251310416599,0.0012385499104857446,-0.0014894045982509852,1.8711090087890626e-05,498.8251310416599,0.25387207031250003,0.07065307617187501,-9.801767120361328,498.8214080416619,-0.0008443291299045086,-0.0006396626122295856,0.0037931224796921015,498.8251310416599
2025-10-03 16:13:09.143621,0.24905480515211822,0.06984555741772056,-9.806589903831483,498.95422904166116,0.001224735863506794,0.0024540901137515905,0.005122160911560059,498.95422904166116,0.2525248718261719,0.06780899047851563,-9.807904357910157,498.95050604165954,0.001582474447786808,-0.0009393282234668732,-0.0016025598160922527,498.95422904166116
2025-10-03 16:13:09.275577,0.2489916917681694,0.06980516594834626,-9.80659399688244,499.0833270416624,-0.0072443530149757865,0.002793881865218282,0.013655587434768678,499.0833270416624,0.24324417114257812,0.06990463256835938,-9.795330505371094,499.0796040416608,-6.315158680081367e-05,0.0015786701114848256,-0.00028627971187233925,499.0833270416624
2025-10-03 16:13:09.422813,0.2491867695003748,0.07031165816355497,-9.806582302451135,499.2223550416602,0.001242423690855503,-0.0019039128022268416,0.004067323207855225,499.2223550416602,0.2561174011230469,0.06541397094726563,-9.806108093261718,499.2186320416622,0.0014196103438735008,0.0013237819075584412,0.0025241319090127945,499.2223550416602
2025-10-03 16:13:09.550340,0.24911497665569188,0.07015383815858514,-9.806584641337395,499.36138379166005,-0.006768956109881401,0.0037923853006213907,-0.0022166794538497924,499.36138379166005,0.2442919921875,0.0712518310546875,-9.808203735351563,499.35766079166206,-0.0003001200966536999,-0.0007970256847329438,-0.00010985834524035454,499.36138379166005
2025-10-03 16:13:09.692634,0.24871926633641125,0.07061985667794943,-9.806591073274612,499.50041179166146,0.0012608606927096845,-0.008648730874992908,0.00228041410446167,499.50041179166146,0.25237518310546875,0.06631210327148437,-9.809251556396484,499.49668879165984,0.0015459321439266205,-9.560392936691642e-05,-0.0003387248143553734,499.50041179166146
2025-10-03 16:13:09.853883,0.24833658434450628,0.07153877402655781,-9.806594581604005,499.65930179166025,0.004188269209116698,-0.0038794677006080748,0.007672131657600403,499.65930179166025,0.2517764282226563,0.06601272583007813,-9.792037353515626,499.65557879166226,-1.9428785890340805e-05,0.0007207195158116519,-0.0005194703117012978,499.65930179166025
2025-10-03 16:13:09.977994,0.24847653379663825,0.07248108480591327,-9.806586980223656,499.7883997916615,-0.007327968198806048,-0.005420524226501584,0.013500051498413086,499.7883997916615,0.24159759521484375,0.06466552734375,-9.794432373046876,499.7846767916599,-0.0026959250681102276,-0.0009729209705255926,-0.00034930603578686714,499.7883997916615
2025-10-03 16:13:10.103637,0.24806929349899293,0.07293534950818867,-9.806590488553047,499.9075677916626,0.006700890865176916,-0.004527599578723312,0.0027288955450057986,499.9075677916626,0.25357269287109374,0.07035369873046875,-9.803114318847657,499.90384479166096,-0.003328208578750491,-0.0008857388747856021,-0.0013893409632146358,499.9075677916626
2025-10-03 16:13:10.228441,0.2482522930763662,0.07334341663867236,-9.806585810780525,500.0366657916602,0.005320436339825392,0.004943788857199252,-0.00012279152870178222,500.0366657916602,0.25237518310546875,0.07454498291015625,-9.806706848144533,500.0329427916622,0.0018595862202346325,0.0003958986490033567,0.000498705543577671,500.0366657916602
2025-10-03 16:13:10.365203,0.2481121974438429,0.07349252063781024,-9.806586980223656,500.1756937916616,-0.008011452890932561,-0.0011928548337891698,-0.005509246587753296,500.1756937916616,0.24264541625976563,0.06975494384765625,-9.80805404663086,500.17197079166,-0.00030267098918557167,9.094050619751215e-05,-0.0013134232722222805,500.1756937916616
2025-10-03 16:13:10.519397,0.2474948593787849,0.07340173347853124,-9.806602182984353,500.32465229165973,0.0006890395469963551,-0.0045449219550937415,0.003937515020370484,500.32465229165973,0.24938140869140626,0.06810836791992188,-9.804611206054688,500.32092929166174,0.0012516281567513943,-0.0017165032913908362,0.0005204700864851475,500.32465229165973
2025-10-03 16:13:10.650658,0.2471114830300212,0.0733249522279948,-9.806613877415657,500.4537512916613,-0.006262331418693066,-0.004019079110585153,0.005893993377685547,500.4537512916613,0.24414230346679688,0.06825805664062501,-9.801467742919922,500.4500282916597,0.0003964640200138092,-0.001545181730762124,-0.0007020523771643639,500.4537512916613
2025-10-03 16:13:10.776882,0.24659226855263114,0.0727394906245172,-9.806631419062615,500.58284929166257,0.0008431867696344853,0.002254563015885651,0.004414647817611694,500.58284929166257,0.24803421020507813,0.07694000244140625,-9.800270233154297,500.57912629166094,0.001569509506225586,0.0002450280589982867,-0.0020517236553132534,500.58284929166257
2025-10-03 16:13:10.927721,0.24672646215185523,0.072522604605183,-9.806629664897919,500.73180829166085,-0.0016859898157417774,0.0006751798186451197,0.005160752534866333,500.73180829166085,0.24459136962890626,0.0700543212890625,-9.800120544433595,500.7280852916592,0.00038295239210128784,-0.0007906199898570776,0.00035309046506881714,500.73180829166085
2025-10-03 16:13:11.056315,0.2469865536130965,0.07159745174925775,-9.806630249619484,500.8609062916621,0.009280572775751353,-0.009626312241889538,-0.003669712543487549,500.8609062916621,0.2582130432128906,0.0622705078125,-9.809251556396484,500.8571832916605,-0.002152508357539773,-0.0014467291766777635,-1.6703736037015915e-05,500.8609062916621
2025-10-03 16:13:11.176216,0.24700086101889612,0.0714434461388737,-9.806629664897919,500.9900042916597,-0.001511359065771103,-0.003933833101764321,0.0038147234916687013,500.9900042916597,0.24533981323242188,0.06691085815429688,-9.799222412109376,500.9862812916617,-0.00036159902811050415,0.00026123819407075644,-0.0002847732976078987,500.9900042916597
2025-10-03 16:13:11.300506,0.2500449397601187,0.0702377594076097,-9.80656183719635,501.10917129166046,0.590307556539774,-0.5936992339789867,-0.15402501583099365,501.10917129166046,1.137484588623047,-1.0356962585449219,-9.121282196044922,501.10544829166247,-0.07237858325242996,0.05472175404429436,-0.04325210675597191,501.10917129166046
2025-10-03 16:13:11.423172,0.2512365292198956,0.06551062816288322,-9.806566514968873,501.22833929166154,-0.04631261575967074,0.368736382573843,0.04551238775253296,501.22833929166154,0.20986358642578126,0.5971083068847657,-9.81763412475586,501.2246162916599,0.008619489148259163,-0.0010243694996461272,-0.002418512012809515,501.22833929166154
2025-10-03 16:13:11.550219,0.26985545257106425,0.04346006530802697,-9.806193462610246,501.357437666662,-0.17210864486172797,-1.6207300651073457,-0.0038088762760162356,501.357437666662,0.4662803649902344,-1.6311579895019532,-9.934391326904297,501.3537146666604,0.01665824092924595,0.03681541979312897,-0.07477793097496033,501.357437666662
2025-10-03 16:13:11.673597,0.2772142282873392,-0.03521074494346976,-9.806018046140672,501.4865356666596,-0.8487258370220662,-0.6084507358074188,0.6932692766189575,501.4865356666596,-0.4481680297851563,-0.5272036743164062,-9.112749938964845,501.48281266666163,-0.000908995047211647,-0.042695578187704086,-0.004499679896980524,501.4865356666596
2025-10-03 16:13:11.801368,0.24763683708384635,0.06464529506396502,-9.806663578748703,501.60570266666036,-0.5580911890044808,1.4172729805111886,0.7747432100772859,501.60570266666036,-0.37018020629882814,1.5837066650390625,-10.681936798095704,501.6019796666624,0.006696350872516632,0.0067781419493258,0.005587491672486067,501.60570266666036
2025-10-03 16:13:11.931059,0.2555508241988719,0.06469718453474343,-9.806457172036172,501.73480166666195,-0.037005328517407184,0.02706199211999774,-0.1029355537891388,501.73480166666195,0.23965164184570314,0.1981878662109375,-9.912985839843751,501.7310786666603,-0.0011751637794077396,0.006938127335160971,-0.006536249071359634,501.73480166666195
2025-10-03 16:13:12.051895,0.2662072102725506,0.06542059931438417,-9.80616831958294,501.86389966665956,0.1425926859676838,0.4731594314798713,-0.016105570793151856,501.86389966665956,0.6376739501953125,0.34024246215820314,-9.904603271484376,501.8601766666616,0.0031010443344712257,0.0002533273072913289,-0.008584348484873772,501.86389966665956
2025-10-03 16:13:12.168581,0.24945166664198043,0.06988097418565303,-9.806577624678612,501.9830666666603,0.012204180601984263,0.15031112026423216,-0.00386968731880188,501.9830666666603,0.1287322998046875,0.19474502563476564,-9.883497161865234,501.9793436666623,0.0056031919084489346,0.0009136127773672342,0.0001575639471411705,501.9830666666603
2025-10-03 16:13:12.301038,0.2738028347678483,0.06134669798891992,-9.805987640619279,502.1022346666614,-0.2173701505176723,0.19252538602799177,-0.6596501255035401,502.1022346666614,0.33904495239257815,0.2716850280761719,-10.50500473022461,502.09851166665976,0.028004975989460945,0.15626828372478485,-0.08784044533967972,502.1022346666614
2025-10-03 16:13:12.441955,0.9942451275140047,0.12592813049443066,-9.758671971559526,502.24126266665917,0.5274901878833771,-0.116198372785002,0.12096602797508241,502.24126266665917,1.3121713256835938,-0.002544708251953125,-9.754016418457033,502.2375396666612,-0.10968764126300812,0.9065913558006287,-0.1777123212814331,502.24126266665917
2025-10-03 16:13:12.564966,1.5470791214704513,0.21802790746092798,-9.684787139296532,502.3703609583281,-1.2110279434919358,-0.3223609457910061,0.9862264752388001,502.3703609583281,0.2505789184570313,-0.08756790161132813,-8.818162536621093,502.36663795832646,0.023005332797765732,-0.315757155418396,-0.21553950011730194,502.3703609583281
2025-10-03 16:13:12.699438,1.0165010920912028,0.005074875552090816,-9.757193210721017,502.4994589583257,-0.0918737181276083,0.1184183230251074,0.8968178701400757,502.4994589583257,0.8910969543457031,0.04326004028320313,-8.775950317382813,502.4957359583277,0.30641812086105347,-0.4148252606391907,-0.3025302588939667,502.4994589583257
2025-10-03 16:13:12.818061,0.9480995593965054,-0.08296207725070417,-9.763728643655778,502.6285579583273,0.7038655277341604,-0.28317656099796296,-3.263384850025177,502.6285579583273,2.2267694091796875,-0.33605117797851564,-15.385904846191407,502.6248349583293,-0.16570430994033813,-0.06060425564646721,-0.3996671140193939,502.6285579583273
2025-10-03 16:13:12.943719,1.1100265024602414,0.05907925739418716,-9.746816157102586,502.74772495832804,0.2651636284589768,0.7588199262320996,1.065619969367981,502.74772495832804,1.3907579040527345,0.8556207275390626,-8.656798095703126,502.7440019583264,-0.09126733988523483,-0.26701727509498596,-0.5396471619606018,502.74772495832804
2025-10-03 16:13:13.074482,0.25097376996651294,0.050212690327316525,-9.806661239862443,502.88675395832615,1.735545260757208,-0.01728117634076625,7.8527743685245515,502.88675395832615,-1.0359956359863283,0.14953903198242188,-6.020031280517578,502.88303095832816,0.13053420186042786,0.11886634677648544,-0.06178916245698929,502.88675395832615
2025-10-03 16:13:13.200364,0.25591890642419457,0.0542386033711955,-9.806510966420174,503.0059209583269,-0.017614499609917404,0.2967814421094954,-0.04106031775474549,503.0059209583269,0.3754193115234375,0.35865417480468753,-9.880054321289062,503.0021979583289,0.007818508893251419,0.0007673713262192905,0.006807898171246052,503.0059209583269
2025-10-03 16:13:13.333027,0.25116378620266916,0.05456146560609341,-9.80663434267044,503.13501895832815,-0.06195720668882132,0.09063659347593785,-0.09437756896018983,503.13501895832815,0.19010467529296876,0.15073654174804688,-9.801018676757813,503.1312959583265,-2.4056993424892426e-05,-0.002146021695807576,-0.0020507629960775375,503.13501895832815
2025-10-03 16:13:13.470648,0.26749222727492455,0.051668619615957145,-9.80621860563755,503.2740482916597,0.08741976605728269,1.5672148856520653,-0.04599536776542664,503.2740482916597,0.33320709228515627,1.6642391967773438,-9.50628158569336,503.2703252916617,-0.003681553527712822,0.024439677596092224,0.001707412302494049,503.2740482916597
2025-10-03 16:13:13.601942,0.26431229213252666,0.057281476124189795,-9.806270061135292,503.41307729166147,0.14703227581456305,1.280037513524294,0.2082310438156128,503.41307729166147,0.2633024597167969,1.2838801574707033,-9.62453567504883,503.40935429165984,0.01432572491466999,-0.01969142258167267,0.005470785778015852,503.41307729166147
2025-10-03 16:13:13.738034,0.25018571147695184,0.05888120123650879,-9.80663200378418,503.5421752916591,-0.6055467526987195,-0.9674917039275169,0.8607855731248856,503.5421752916591,-0.3802093505859375,-1.0642868041992188,-9.499246215820312,503.5384522916611,0.007512274663895369,0.015144712291657925,0.020037278532981873,503.5421752916591
2025-10-03 16:13:13.873403,0.279618420638144,0.06907320418395102,-9.805769539475442,503.68120429166083,0.07364692367613317,-1.3996561968326569,-0.053625984191894537,503.68120429166083,0.3411405944824219,-1.3419593811035158,-9.826016693115236,503.6774812916592,-0.0008115344680845737,-0.0007391968392767012,0.010319817811250687,503.68120429166083
2025-10-03 16:13:14.005707,0.2828957850113511,0.07057491077575832,-9.805666628479958,503.8103022916621,0.04043183343484998,-0.5148510292544961,-0.0718429845571518,503.8103022916621,0.3263214111328125,-0.3373983764648438,-9.78410385131836,503.80657929166046,-0.0028369256760925055,-0.00041524984408169985,0.00333721237257123,503.8103022916621
2025-10-03 16:13:14.134393,0.27746010370552543,0.06873590663541108,-9.805836782455446,503.9394002916597,0.0009609898924827576,0.13020041688345374,0.09642526388168335,503.9394002916597,0.31329849243164065,0.21809646606445313,-9.783205718994141,503.9356772916617,0.0010563586838543415,-0.006174316164106131,0.0015768653247505426,503.9394002916597
2025-10-03 16:13:14.259029,0.27105122644454244,0.0695405017817393,-9.806008105874062,504.06849829166094,0.03491250040009618,-0.16324563637375833,0.027742114663124085,504.06849829166094,0.3107537841796875,-0.19594253540039064,-9.799072723388672,504.0647752916593,-0.0009997710585594177,-0.008761562407016754,-0.0016973703168332577,504.06849829166094
2025-10-03 16:13:14.386877,0.3010556653887034,0.08579389292746782,-9.805001800060273,504.19759729166253,-1.740163099318743,-0.6583532861620188,-0.3935877799987793,504.19759729166253,-1.4844630432128907,-0.6727011108398437,-9.707912292480469,504.1938742916609,-0.08408942073583603,0.009588522836565971,0.29316285252571106,504.19759729166253
2025-10-03 16:13:14.514920,0.8237718940526247,0.24315198613330724,-9.77232931315899,504.3266945833275,-0.30749542325735096,-0.5356436915695667,-1.1091443037986757,504.3266945833275,0.9764195251464844,-0.5086422729492188,-10.64675994873047,504.32297158332585,0.04569554328918457,2.050480842590332,0.10176410526037216,504.3266945833275
2025-10-03 16:13:14.644403,2.2863557526469234,0.15313940020278097,-9.538619027137758,504.4458615833282,-2.5545976477861405,0.16509883828461172,2.1999786365032197,504.4458615833282,-0.2700384521484375,0.3296145629882813,-7.382797393798828,504.4421385833266,0.19311942160129547,-0.4676826000213623,-0.08588946610689163,504.4458615833282
2025-10-03 16:13:14.800055,0.5296873157098889,0.018053676896961406,-9.795672567486763,504.59482158332685,2.043611518442631,0.516335052587092,1.1508501541614533,504.59482158332685,2.595901794433594,0.49067962646484375,-8.523425445556642,504.59109858332886,0.008461672812700272,-0.1425209641456604,-0.0031976690515875816,504.59482158332685
2025-10-03 16:13:14.933923,0.26011141486465933,0.06091844426002354,-9.806361862421037,504.74378058332877,1.8386742112040522,-0.052835253342054786,-0.21365141272544863,504.74378058332877,2.0422032165527346,0.025596771240234375,-10.475516052246094,504.74005758332714,0.016761859878897667,-0.006808822508901358,0.009700626134872437,504.74378058332877
2025-10-03 16:13:15.066794,0.25451093344017867,0.06237724233884365,-9.80649927198887,504.8629485833262,-0.011566139739006758,0.18401039650663734,0.13166877150535583,504.8629485833262,0.2389031982421875,0.22558090209960938,-9.747130737304689,504.8592255833282,-0.0005327682010829449,-0.005362407770007849,0.0041657546535134315,504.8629485833262
2025-10-03 16:13:15.201195,0.25895810639485717,0.06290221266914159,-9.806379988789558,505.00197758332797,0.02679766142740846,0.021222848366014662,0.05835170388221741,505.00197758332797,0.3043171691894531,0.06915618896484375,-9.767039337158204,504.99825458332634,-0.0010605286806821823,0.00359442294575274,0.00403788173571229,505.00197758332797
2025-10-03 16:13:15.337249,0.2704957592301071,0.06436753861606122,-9.806056637763978,505.15093658332626,-0.01617469584569335,-0.20103335889056326,0.04680345296859741,505.15093658332626,0.13741424560546875,-0.1824705505371094,-9.848470001220704,505.14721358332827,-0.0009126546792685986,0.0022016074508428574,0.0011057329829782248,505.15093658332626
2025-10-03 16:13:15.464410,0.2675649885646999,0.06455597884487362,-9.806137914061546,505.27010458332734,0.016394496336579325,-0.19089326368644835,0.013501805663108827,505.27010458332734,0.2736309814453125,-0.14894027709960939,-9.785301361083985,505.2663815833257,0.0006395140662789345,-0.003233550116419792,-0.0012735766358673573,505.27010458332734
2025-10-03 16:13:15.619052,0.26031701758503917,0.06740363225340844,-9.806312745809555,505.4289944166594,0.15117723908275366,-0.5040456305444241,0.0487049674987793,505.4289944166594,0.3394940185546875,-0.4432283020019531,-9.715396728515625,505.4252714166614,-0.002016515703871846,-0.011188358999788761,-0.0037530045956373215,505.4289944166594
2025-10-03 16:13:15.757398,0.2504069189541042,0.06799084802158177,-9.806565345525742,505.5680224166608,0.03609721938148141,0.17675018291920425,0.02171597421169281,505.5680224166608,0.2755769348144531,0.26105712890625,-9.78889389038086,505.5642994166592,0.002122540958225727,0.0007490493007935584,0.0017595726530998945,505.5680224166608
2025-10-03 16:13:15.904516,0.2535098535753787,0.06858909127302468,-9.806484653949738,505.6971214166624,-0.024186733458191157,0.34185739003121857,0.0071125531196594245,505.6971214166624,0.2547702026367188,0.3932322692871094,-9.808203735351563,505.6933984166608,-0.0026637010741978884,-0.0008590371580794454,-0.0017014392651617527,505.6971214166624
2025-10-03 16:13:16.106765,0.25257561469450596,0.06621234885882586,-9.80652616918087,505.89573341666255,0.02659390423446894,-0.11111895136535169,-0.002577452659606934,505.89573341666255,0.2770738220214844,-0.026943969726562503,-9.814490661621095,505.8920104166609,0.0024102497845888138,-0.0014353836886584759,0.0030836211517453194,505.89573341666255
2025-10-03 16:13:16.311246,0.23879957461729648,0.06624349898658694,-9.806872909069062,506.07448541666236,0.05354258827865124,-0.3823860497027636,-0.04219935536384583,506.07448541666236,0.32587234497070316,-0.3998185729980469,-9.835297393798829,506.0707624166607,-0.007656612899154425,-0.07079990953207016,-0.00526814628392458,506.07448541666236
2025-10-03 16:13:16.435517,0.2532496890239418,2.2704292528331282,-9.540287237763405,506.2433054166613,-4.030195727348328,-4.084806967377663,-7.61239182472229,506.2433054166613,-4.4298880004882815,-1.6983682250976564,-16.475938110351564,506.2395824166597,-3.4035682678222656,0.3363657295703888,-0.8978949189186096,506.2433054166613
2025-10-03 16:13:16.566586,4.89373475432396,3.9204268249869347,-7.544385198354721,506.3724047916621,-2.227927742600441,2.8115245959162714,2.8749940752983094,506.3724047916621,2.13875244140625,6.164031829833985,-4.497397613525391,506.3686817916605,0.8163827657699585,6.531484127044678,1.1858941316604614,506.3724047916621
2025-10-03 16:13:16.721557,9.151164391636849,1.3142402167618275,-3.149433726668358,506.5312947916609,-10.325622678995133,-1.1940404663980009,2.2542948845028876,506.5312947916609,-0.97477294921875,0.013921051025390626,-1.1241622924804688,506.5275717916593,-0.06201711297035217,1.3541133403778076,2.000138759613037,506.5312947916609
2025-10-03 16:13:16.852468,8.323742446303369,-0.6467657858133317,-5.151034462451935,506.66039279166216,-5.8142092895507815,-0.22382395997643473,1.8840769636631014,506.66039279166216,2.478396148681641,-0.8342152404785157,-3.3521292114257815,506.65666979166053,0.6290085911750793,-5.083617210388184,0.23229753971099854,506.66039279166216
2025-10-03 16:13:16.974769,3.2538758155703547,0.3385744708031416,-9.248445687890053,506.7795607916596,54.593478527069095,-0.597685646340251,9.362958143949509,506.7795607916596,59.86351318359375,-2.414029998779297,-29.15307586669922,506.7758377916616,-1.37103271484375,-13.16230583190918,-1.9788302183151245,506.7795607916596
2025-10-03 16:13:17.167031,0.2592003455758095,0.11880092279054225,-9.805856078267098,506.95831179165907,1.3839327415823937,1.3385684345662594,2.298517084121704,506.95831179165907,-0.006286926269531251,0.40745269775390625,2.855911102294922,506.9545887916611,-0.2324560135602951,0.6180702447891235,0.019573772326111794,506.95831179165907
2025-10-03 16:13:17.499359,0.24773304205387833,0.13454752936027944,-9.805947879552841,507.28602304165906,-0.5722581885382534,-0.2303483197465539,-0.6945656043291092,507.28602304165906,-0.3200344848632813,-0.1323248291015625,-10.244546356201173,507.2823000416611,-0.04749980568885803,-0.0719592273235321,0.0898398905992508,507.28602304165906
2025-10-03 16:13:17.714299,0.23841457201167943,0.40408758860081434,-9.798774515390397,507.5243580416609,0.694744894579053,0.2650209929421544,0.30791086792945865,507.5243580416609,0.9370513916015626,0.726888427734375,-9.663005676269531,507.52063504165926,-0.12062627822160721,-0.04911251738667488,0.4171746075153351,507.5243580416609
2025-10-03 16:13:17.849301,0.23180999575182798,0.39341039009392265,-9.799369761943817,507.66338704166265,0.4365501970052719,0.8478085550665856,1.3335721349716188,507.66338704166265,0.5727090454101563,1.1984078979492188,-8.502618713378906,507.659664041661,0.17066511511802673,-0.020883500576019287,0.06187760829925537,507.66338704166265
2025-10-03 16:13:18.084798,0.2718595491908491,0.11480410421267152,-9.805558454990388,507.87193004165965,0.07586727591231465,-0.09399740858003498,0.9424916410446168,507.87193004165965,0.39667510986328125,0.07334747314453126,-8.970395965576172,507.86820704166166,0.01189036387950182,-0.023123422637581825,0.0027515501715242863,507.87193004165965
2025-10-03 16:13:18.229217,0.26201234467327594,0.11164416837505997,-9.805868357419968,508.0407510416626,0.13870445201173426,0.05765381128527224,0.11546613693237305,508.0407510416626,0.26794281005859377,0.15672409057617187,-9.704619140625,508.03702804166096,-0.008047607727348804,0.015102137811481953,0.00036621419712901115,508.0407510416626
2025-10-03 16:13:18.388303,0.26867499109357595,0.10684902213513851,-9.805738549232483,508.1897110416612,-0.19562689539045097,-0.5857032396644354,-0.029109778404235842,508.1897110416612,0.08277786254882813,-0.4746629333496094,-9.766440582275392,508.1859880416596,0.005255345720797777,0.01002294011414051,-0.0004164804704487324,508.1897110416612
2025-10-03 16:13:18.522227,0.28052188854664567,0.102446013931185,-9.805452620387078,508.32873983332684,0.05283489245921374,-0.5316035579144955,-0.015773448944091797,508.32873983332684,0.3209326171875,-0.444276123046875,-9.803713073730469,508.32501683332885,0.007868507876992226,0.007589893415570259,-0.0029052128084003925,508.32873983332684
2025-10-03 16:13:18.653625,0.2880414078757167,0.101100916787982,-9.805247967839241,508.4479068333276,-0.03132530668750406,-0.5793564159795642,-0.029748879075050357,508.4479068333276,0.23246658325195313,-0.4843927001953125,-9.857900390625,508.44418383332595,0.002355370204895735,0.003527809167280793,0.000852757366374135,508.4479068333276
2025-10-03 16:13:18.797890,0.286734884083271,0.09910164412111044,-9.805309363603593,508.5968668333262,-0.036305617801845075,-0.14131385422311724,0.002792630195617676,508.5968668333262,0.23575973510742188,-0.023501129150390626,-9.794582061767578,508.5931438333282,-0.0014469027519226074,-0.001779958256520331,-0.0001546754501760006,508.5968668333262
2025-10-03 16:13:18.924695,0.2850159305892885,0.09857930503785611,-9.805364327430725,508.72596483332745,-0.021863123048096896,0.11682277319021524,0.0026979053020477297,508.72596483332745,0.2710862731933594,0.2221380615234375,-9.79413299560547,508.7222418333258,0.0005359495989978313,-0.0010156658245250583,-0.0020556231029331684,508.72596483332745
2025-10-03 16:13:19.069614,0.28472364289686086,0.09999715433456004,-9.8053614038229,508.8649938333292,-0.06662706719711423,-0.15253786789253354,-0.007337086200714112,508.8649938333292,0.21285736083984377,-0.05792953491210938,-9.804760894775391,508.8612708333276,-0.007773593999445438,-0.0006831579958088696,0.00015831878408789635,508.8649938333292
2025-10-03 16:13:19.530557,1.955207464993,3.324407562017441,-9.020062800049782,509.3317340833273,-1.887249078154564,3.9521102553606036,3.6463897544145585,509.3317340833273,-0.3155438232421875,4.942571868896485,-3.9450462341308596,509.3379420833262,2.1480066776275635,7.019643783569336,-0.3712713122367859,509.3317340833273
2025-10-03 16:13:19.697122,4.316596735417843,-1.59334886983037,-8.66397029042244,509.5005550833266,-4.643964798152447,0.009940997511148453,7.672579554319382,509.5005550833266,-0.3305126953125,-1.821412353515625,-1.129401397705078,509.4968320833286,2.1631484031677246,-0.38810983300209045,2.099634885787964,509.5005550833266
2025-10-03 16:13:19.855881,1.8749490214884281,-3.2709768748283388,-9.05656287431717,509.6395840833284,-25.837718625068664,-3.4096298530697826,43.58017300128937,509.6395840833284,-8.547375640869141,-1.5389497375488281,-1.7441729736328127,509.63586108332674,-2.6811134815216064,-1.3199373483657837,0.609616756439209,509.6395840833284
2025-10-03 16:13:20.014580,0.12317256616428494,0.17324640339240432,-9.807696781754494,509.80840408332733,-11.663424689769746,-5.259519608616829,-60.19677640914917,509.80840408332733,-18.771863708496095,-11.198811950683595,-42.09905456542969,509.8046810833257,-0.03557285666465759,0.12128999084234238,1.0898656845092773,509.80840408332733
2025-10-03 16:13:20.151843,0.30391248704865576,0.17417196281254294,-9.803746402859689,509.95736408332596,-0.023096410464495423,0.48101556770503523,-0.42059373021125795,509.95736408332596,1.0635383605957032,0.4881349182128906,-9.511221313476563,509.95364108332797,-0.008241347968578339,-0.028385117650032043,0.010390868410468102,509.95736408332596
2025-10-03 16:13:20.285146,0.3015488597564399,0.178124644048512,-9.803748157024383,510.0864620833272,-0.0578555859066546,-0.1320204997994006,-0.19306453585624697,510.0864620833272,0.5242098999023438,0.087418212890625,-9.933343505859375,510.0827390833292,-0.017772654071450233,-0.04703539237380028,0.08102717250585556,510.0864620833272
2025-10-03 16:13:20.421206,0.2900931044854224,0.28205736737698317,-9.801653684377671,510.22549108332896,-0.041160743683576584,-0.48728056691586974,-0.48540543794631963,510.22549108332896,0.33605117797851564,-0.13367202758789062,-10.39243881225586,510.22176808332733,-0.20338253676891327,-0.07207825034856796,0.3633593022823334,510.22549108332896
2025-10-03 16:13:20.552147,0.26549987990409135,0.5009175894409419,-9.793606746196748,510.3545899166602,-0.28705500086769464,-0.18627175234258175,0.31995496273040774,510.3545899166602,-0.15717315673828125,0.33245864868164066,-9.447603607177735,510.3508669166622,-0.16892756521701813,-0.021443355828523636,0.4968513548374176,510.3545899166602
2025-10-03 16:13:20.677058,0.2723561422526837,0.5919012517109513,-9.788337235450745,510.48368791666144,0.07522101240232587,-0.2898295229673386,0.39701834142208103,510.48368791666144,0.31344818115234374,0.2938389587402344,-9.432784423828126,510.4799649166598,-0.005688605364412069,-0.020041942596435547,0.44723063707351685,510.48368791666144
2025-10-03 16:13:20.815909,0.270559274610132,0.5525683476403356,-9.790688400864601,510.61278591665905,0.6007787868753076,-0.2683094304800034,0.36898035764694215,510.61278591665905,0.9081614685058594,0.27677444458007816,-9.479636993408203,510.60906291666106,0.06980354338884354,-0.028598731383681297,0.39430537819862366,510.61278591665905
2025-10-03 16:13:20.951740,0.27473780455067753,0.35842865500599147,-9.799597218632698,510.7518149166608,0.22761748731136322,-0.31022899657487873,-0.00785573422908783,510.7518149166608,0.4794529724121094,0.02544708251953125,-9.803713073730469,510.7480919166592,0.15035995841026306,-0.013413234613835812,0.16734367609024048,510.7518149166608
2025-10-03 16:13:21.077157,0.2972713839635253,0.18144330438226464,-9.803814815282822,510.89084391666256,0.3812675504386425,0.6114578491821886,1.3833763790130615,510.89084391666256,-0.5132826232910157,0.76880126953125,-7.894882507324219,510.88712091666093,0.028452208265662193,0.04170601814985275,0.020499195903539658,510.89084391666256
2025-10-03 16:13:21.200062,0.29098527995869516,0.1772149452008307,-9.804081448316575,511.01001191666,-0.6011403275281191,-0.16688646001741292,-0.31891708195209506,511.01001191666,-0.23366409301757815,-0.007035369873046876,-9.980046386718751,511.006288916662,0.006802866235375404,-0.0037632579915225506,-0.0011324440129101276,511.01001191666
2025-10-03 16:13:21.335567,0.28788883209228516,0.17523606469854713,-9.804208332896232,511.13910991666125,-0.04928501129150391,-0.115210887696594,-0.0013004207611083986,511.13910991666125,0.2429447937011719,0.06810836791992188,-9.863289184570313,511.1353869166596,-0.0008347970433533192,0.0010532058076933026,0.0020161480642855167,511.13910991666125
2025-10-03 16:13:21.467056,0.2864726364612579,0.17425831887871027,-9.804267389774322,511.2682079166625,-0.0376900009252131,-0.13803366674110293,-0.003636383414268494,511.2682079166625,0.2501298522949219,0.04026626586914063,-9.833201751708986,511.2644849166609,0.002064329106360674,-0.002306303009390831,-0.00081242760643363,511.2682079166625
2025-10-03 16:13:21.595264,0.2838977967761457,0.17373325718566776,-9.80435275912285,511.39730716666236,-0.0402045594714582,-0.04006122959777713,0.012614783048629761,511.39730716666236,0.23306533813476563,0.124541015625,-9.79802490234375,511.39358416666073,-0.002719205105677247,0.0024679587222635746,0.000430339016020298,511.39730716666236
2025-10-03 16:13:21.743255,0.2897028028406203,0.16970770502462984,-9.804251017570497,511.55619716666115,-0.03852518431842327,0.43907626725733284,-0.021913610100746155,511.55619716666115,0.24743545532226563,0.6065386962890625,-9.81853225708008,511.5524741666595,0.004363100975751877,0.003317476948723197,0.00266859820112586,511.55619716666115
2025-10-03 16:13:21.872455,0.2917768833227456,0.16926846949383617,-9.804197807908059,511.67536516666223,0.01807871371507645,0.6065681516379118,0.0001865261793136597,511.67536516666223,0.3177891540527344,0.76880126953125,-9.738897857666016,511.6716421666606,-0.0012977831065654755,-0.010499552823603153,-0.0034265704452991486,511.67536516666223
2025-10-03 16:13:22.008826,0.2970915272645652,0.165181174390018,-9.804111853837968,511.81439416666035,-0.15728220731019973,-0.2928656166046858,0.041710528135299685,511.81439416666035,0.11301498413085938,-0.168848876953125,-9.801617431640626,511.81067116666236,-0.0015383865684270859,0.0027407228481024504,0.005206284578889608,511.81439416666035
2025-10-03 16:13:22.140363,0.2890107300505042,0.16759326048195364,-9.804312998056412,511.9434921666616,-0.04382049590349198,-0.8281695118546486,-0.054788410663604736,511.9434921666616,0.24818389892578127,-0.6527925109863282,-9.805060272216798,511.93976916665997,2.1789222955703735e-05,-0.001428228453733027,0.003208806272596121,511.9434921666616
2025-10-03 16:13:22.270941,0.298968647941947,0.16607044452801348,-9.804038763642312,512.0825211666597,-0.021745100654661658,-0.2973474343121052,-0.021680306196212768,512.0825211666597,0.2743794250488281,-0.10193801879882813,-9.831255798339845,512.0787981666617,0.0025561372749507427,0.01406752411276102,0.0022710205521434546,512.0825211666597
2025-10-03 16:13:22.406366,0.30685391061007977,0.16377791572362185,-9.80383235692978,512.211619166661,-0.07064510934054852,0.14068896045908333,-0.014849588871002198,512.211619166661,0.20402572631835938,0.3146456909179688,-9.805808715820312,512.2078961666593,-0.00544635159894824,0.011595658957958221,0.014917677268385887,512.211619166661
2025-10-03 16:13:22.540103,0.32430262338370086,0.16088204562664032,-9.803317217230797,512.3506478333293,-0.1594954149797559,-0.2340798665955663,0.0961545377969742,512.3506478333293,0.15208374023437501,-0.09924362182617188,-9.676477661132813,512.3469248333276,-0.0024875630624592304,0.00031410990050062537,-0.00663749547675252,512.3506478333293
2025-10-03 16:13:22.676230,0.1418546851258725,0.2308055354654789,-9.806259536147119,512.4797468333272,2.203168877363205,-3.1178517454862598,-2.438727468252182,512.4797468333272,2.615361328125,-3.2985406494140626,-12.912598114013672,512.4760238333292,-0.41064170002937317,-0.19871175289154053,-0.2823793888092041,512.4797468333272
2025-10-03 16:13:22.810461,0.2474182608537376,3.651245574653149,-9.101829094290734,512.618775833329,-2.7327000358700753,-2.284737535715103,0.703244041800499,512.618775833329,-1.42024658203125,1.423839111328125,-8.707392883300782,512.6150528333274,-3.543602228164673,-0.41952887177467346,0.6739598512649536,512.618775833329
2025-10-03 16:13:22.935146,0.7570004189014435,3.8091788694262507,-9.00850870192051,512.7478738333266,-1.5304420387744904,0.5859813478589059,4.3289393305778505,512.7478738333266,-0.7596702575683594,4.112547912597656,-4.019142150878906,512.7441508333286,2.0429790019989014,-1.7164793014526367,-0.4278029203414917,512.7478738333266
2025-10-03 16:13:23.127092,-1.6717135463654995,-0.5689151526242495,-9.649758224487305,512.9266258333264,3.2506300261616707,-0.6525448814034462,5.6430390679836275,512.9266258333264,1.43701171875,-1.2831317138671876,-3.951632537841797,512.9229028333284,2.107769727706909,0.19224008917808533,-0.20812931656837463,512.9266258333264
2025-10-03 16:13:23.291473,0.8189033561199904,-3.1882750260829926,-9.241231977939606,513.095445833329,0.6173597728461028,1.3128256291151048,6.160041105151177,513.095445833329,1.48251708984375,-1.9495458984375,-3.1621742248535156,513.0917228333274,0.8368657231330872,1.391480565071106,-0.5476878881454468,513.095445833329
2025-10-03 16:13:23.407888,0.27071318428963426,-0.7281463830918073,-9.779192774891854,513.2146138333264,3.175719884634018,-1.354472714960575,-64.95604508399964,513.2146138333264,6.520740051269532,2.1237835693359375,-76.55200927734376,513.2108908333284,-1.5235697031021118,2.9077324867248535,-0.10622023046016693,513.2146138333264
2025-10-03 16:13:23.536370,0.3182217749208212,0.13850794902071356,-9.803859838843346,513.3437130833263,-5.264835312366486,-1.3726914694905281,-18.57861907839775,513.3437130833263,2.9966184997558596,2.8621980285644533,-54.18177841186524,513.3399900833283,-0.0366329625248909,-0.5195161700248718,-0.32870522141456604,513.3437130833263
2025-10-03 16:13:23.678324,0.3271610713005066,0.14612347232177855,-9.80345579624176,513.4926720833282,-0.1768735957145691,0.8184706621617079,-0.8777337276935577,513.4926720833282,-0.17498611450195314,0.9883946228027344,-10.098899230957032,513.4889490833266,-0.002579029882326722,0.013018024154007435,0.007031929679214954,513.4926720833282
2025-10-03 16:13:23.833873,0.32691329553723336,0.14420752247795462,-9.803490294814111,513.6317010833263,-0.08232192590832711,-0.1286399046611041,0.24571637392044068,513.6317010833263,0.2571652221679688,0.08592132568359376,-10.193352813720704,513.6279780833283,0.013154041022062302,0.0026619015261530876,0.0014191227965056896,513.6317010833263
2025-10-03 16:13:23.975082,0.3245447712019086,0.1420951427333057,-9.803600807189943,513.7806610833286,-0.09656884957104922,-0.20331781122833492,-0.09276958465576172,513.7806610833286,0.16450790405273438,-0.04071533203125,-9.75686050415039,513.776938083327,-0.005518695805221796,0.005648241378366947,-0.0007032142020761967,513.7806610833286
2025-10-03 16:13:24.098255,0.3220856150239706,0.14060039341449737,-9.8037007945776,513.9097590833262,-0.09725322961807252,-0.132517229905352,-0.1964015418291092,513.9097590833262,0.1682501220703125,-0.02125579833984375,-9.824070739746094,513.9060360833282,-0.0053373174741864204,-0.014634255319833755,0.0076989950612187386,513.9097590833262
2025-10-03 16:13:24.231477,0.3123079741001129,0.14232188679277896,-9.803996663689613,514.0289270833273,-0.07984131775796414,-0.549475207105279,0.11823654770851136,514.0289270833273,0.3183879089355469,-0.4165837097167969,-9.735155639648438,514.0252040833293,0.0028031333349645138,-0.011276285164058208,0.0012476153206080198,514.0289270833273
2025-10-03 16:13:24.380850,0.31152265649288896,0.1400544736068696,-9.804049873352051,514.1878170833261,-0.10779638070613147,0.19824198950082064,0.057969295978546144,514.1878170833261,0.2537223815917969,0.33290771484375004,-9.6902490234375,514.1840940833281,0.0030492781661450863,0.01349086407572031,-0.0007846509106457233,514.1878170833261
2025-10-03 16:13:24.516977,0.31432614058256153,0.13920449858531356,-9.8039750289917,514.3169160416619,-0.09742718428373337,0.07979009980335831,0.0459170150756836,514.3169160416619,0.25357269287109374,0.19429595947265627,-9.783804473876954,514.3131930416603,0.00017005763947963715,-0.0022969727870076895,0.0016436588484793901,514.3169160416619
2025-10-03 16:13:24.649366,0.31297101181000475,0.13871791888028384,-9.804027653932572,514.45594504166,-0.12660851798951628,0.005432355701923371,-0.049833480119705204,514.45594504166,0.2118095397949219,0.13666580200195313,-9.764195251464844,514.452222041662,-0.004321659449487925,-0.0022993728052824736,0.0009867800399661064,514.45594504166
2025-10-03 16:13:24.786139,0.30775248147547246,0.13879018681123853,-9.804190791249276,514.5949740416618,-0.09908636827021838,-0.08415378548204899,0.0018231618404388429,514.5949740416618,0.18112335205078126,0.07768844604492188,-9.806856536865235,514.5912510416601,0.002508854027837515,0.0008325761300511658,0.0013783765025436878,514.5949740416618
2025-10-03 16:13:24.913254,0.3051620553061366,0.13912361514754595,-9.804266220331192,514.7240720416594,-0.09948975306004286,-0.05320229860022664,-0.03252806067466736,514.7240720416594,0.18905685424804688,0.09101074218750001,-9.837542724609376,514.7203490416614,0.0001565287820994854,-0.0025074807927012444,-0.0010442156344652176,514.7240720416594
2025-10-03 16:13:25.058549,0.301796452794224,0.13938913355581464,-9.80436854660511,514.8631010416611,-0.09043586952611804,-0.09792530310340226,0.01876488447189331,514.8631010416611,0.20447479248046876,0.035326538085937505,-9.813742218017579,514.8593780416595,0.003693351987749338,-0.004313269164413214,0.00037813233211636543,514.8631010416611
2025-10-03 16:13:25.198906,0.29827708678320053,0.13751699214801194,-9.804498354792596,515.0021300416593,-0.09694583052769304,-0.08587442005053163,0.00467894196510315,515.0021300416593,0.20507354736328126,0.04580474853515625,-9.782756652832031,514.9984070416613,-0.0008270819671452045,-0.0023149626795202494,0.000823350390419364,515.0021300416593
2025-10-03 16:13:25.336556,0.290184284504503,0.13177979551255703,-9.804819951653482,515.141159041661,-0.0951399545185268,-0.0344821453280747,-0.00428016185760498,515.141159041661,0.19489471435546876,0.10014175415039063,-9.806407470703126,515.1374360416594,0.0016300799325108528,-0.0009738290682435036,0.0004518548958003521,515.141159041661
2025-10-03 16:13:25.491154,0.2895183414593339,0.1308430532924831,-9.804851526618004,515.2901182916612,-0.10046154202893377,-0.018426851453259587,0.009673048853874208,515.2901182916612,0.19190093994140625,0.10972183227539063,-9.787397003173828,515.2863952916596,0.0015788259916007519,0.0028646879363805056,0.002674481365829706,515.2901182916612
2025-10-03 16:13:25.621517,0.2918567709065974,0.13104343006387353,-9.804783114194871,515.4291472916593,-0.08977697968482971,0.04454144845716655,-0.023929145336151123,515.4291472916593,0.2077679443359375,0.16839981079101562,-9.820627899169923,515.4254242916613,-0.0035963132977485657,-0.0008188842330127954,0.0017035643104463816,515.4291472916593
2025-10-03 16:13:25.740057,0.2881725134141743,0.13202016175724568,-9.804879008531572,515.5483152916604,-0.10465410528704525,-0.2845529590174556,0.035144104957580566,515.5483152916604,0.18681152343750002,-0.15582595825195314,-9.77302688598633,515.5445922916624,-0.0007364288903772831,0.0004430351546034217,-0.0024354509077966213,515.5483152916604
2025-10-03 16:13:25.860430,0.28932094311341644,0.13159894295968116,-9.804851526618004,515.6674822916611,-0.08379823822528125,0.015245719458907844,-0.03733330249786377,515.6674822916611,0.21480331420898438,0.1375639343261719,-9.834099884033204,515.6637592916595,-0.0009368201717734337,-0.0014788666740059853,-0.0027995514683425426,515.6674822916611
2025-10-03 16:13:25.982621,0.275025670286268,0.13364748755469918,-9.805232765078545,515.7866502916622,0.049200117029249674,-0.6232792747020722,-0.1661310911178589,515.7866502916622,0.35820510864257815,-0.5899232482910156,-9.984686737060548,515.7829272916606,-0.014841074123978615,-0.0928744524717331,-0.013325157575309277,515.7866502916622
2025-10-03 16:13:26.108866,0.06016644664574415,1.1942025804519654,-9.736855425238609,515.9157482916598,-0.029779650047421457,-6.443935704231262,-5.329613106250763,515.9157482916598,-0.6571334838867188,-5.129682769775391,-14.71395217895508,515.9120252916618,-2.1464285850524902,0.11619292199611664,-0.3539251685142517,515.9157482916598
2025-10-03 16:13:26.238071,2.3331038032472136,3.3999527111649517,-8.901294740438463,516.0448472916614,1.315858141332865,16.60414883852005,-14.814637724161148,516.0448472916614,1.0099497985839845,17.278269653320315,-18.8871240234375,516.0411242916598,-0.6882862448692322,5.358695030212402,-0.24687214195728302,516.0448472916614
2025-10-03 16:13:26.364425,3.940607612729073,2.8361995536088944,-8.524301943182946,516.1640152916625,-3.814419436454773,-2.457786175310612,9.512844500541688,516.1640152916625,0.2616558837890625,0.22348526000976562,1.059646453857422,516.1602922916609,1.1892635822296143,-1.7740339040756226,0.8401008248329163,516.1640152916625
2025-10-03 16:13:26.500415,1.721100591570139,0.08573575881309808,-9.657460176944733,516.3030445416625,-0.4357238392531872,-0.07570662366226316,10.356808218955994,516.3030445416625,1.3546829223632812,-0.005538482666015625,0.12124786376953126,516.2993215416609,2.7588231563568115,-1.9561681747436523,0.2667395770549774,516.3030445416625
2025-10-03 16:13:26.635087,0.8151810917258263,-3.2323440286517147,-9.226237962841989,516.4420735416606,0.6613482300192118,1.660912715792656,5.30275041282177,516.4420735416606,1.411864013671875,-1.5711328125000001,-4.16014892578125,516.4383505416627,1.6581073999404907,0.39889460802078247,-0.4352874755859375,516.4420735416606
2025-10-03 16:13:26.763065,1.1371898889541627,-3.7192872843146327,-9.006098479628564,516.5612415416617,1.8752956151962281,0.6849472269415856,0.38911699891090396,516.5612415416617,4.075724487304687,-4.24921371459961,-10.162816314697267,516.5674485416603,-1.0879530906677246,-0.8384184837341309,-1.3652750253677368,516.5612415416617
2025-10-03 16:13:26.895345,-0.51643569778651,-0.08353412680327893,-9.79604094207287,516.7002705416598,0.5421821942925453,-44.1422962474823,28.95874248504639,516.7002705416598,-0.6677613830566407,-31.938633270263672,16.22416168212891,516.6965475416619,4.0709757804870605,-1.497372031211853,-0.21475905179977417,516.7002705416598
2025-10-03 16:13:27.016190,0.3904013398289681,0.11393394716084004,-9.801564221978188,516.8293685416611,-3.2240088227391244,1.74055954053998,-3.775799161791802,516.8293685416611,-0.9491761779785157,1.742227020263672,-2.671344909667969,516.8256455416595,-0.008235209621489048,0.12266553193330765,0.12182722985744476,516.8293685416611
2025-10-03 16:13:27.147267,0.3865213467925787,0.12447197279892862,-9.801591119170189,516.9485365416622,-0.053014950156211854,-1.3939820587635041,-0.8336416286230087,516.9485365416622,0.22243743896484375,-1.2635224914550782,-9.413175201416015,516.9448135416606,-0.03291450813412666,-0.018031803891062737,0.007326693739742041,516.9485365416622
2025-10-03 16:13:27.271539,0.3866043041646481,0.1227273829188198,-9.801608660817147,517.0776345416598,-0.2855644907802343,0.28936563776805996,-0.2435499805212021,517.0776345416598,0.16151412963867187,0.34563125610351564,-9.542506256103517,517.0739115416618,-0.02889341115951538,-0.004734710790216923,-0.002543747890740633,517.0776345416598
2025-10-03 16:13:27.406627,0.38913311529904604,0.12268888265825809,-9.80151101231575,517.2067335416614,-0.2617480139806867,-0.2601031374000013,0.120692378282547,517.2067335416614,0.28336074829101565,-0.14025833129882814,-9.28354476928711,517.2030105416598,-0.010842762887477875,0.0011775754392147064,0.0014253950212150812,517.2067335416614
2025-10-03 16:13:27.524153,0.3863800268992782,0.12170166252180935,-9.801633803844453,517.3358312083292,-0.2202255103737116,0.0568769995495677,0.022169133424758913,517.3358312083292,0.3059637451171875,0.17528549194335938,-9.572593688964844,517.3321082083276,-0.0005179857835173607,0.0008308252436108887,0.003246324136853218,517.3358312083292
2025-10-03 16:13:27.655547,0.38625705264508725,0.12178604515269399,-9.801637896895409,517.4549992083266,-0.09586089793592692,-0.17747023098170758,-0.018991756439208984,517.4549992083266,0.20941452026367188,-0.04146377563476563,-9.932894439697266,517.4512762083286,0.004595146980136633,-0.003134388942271471,0.0017107606399804354,517.4549992083266
2025-10-03 16:13:27.797223,0.37538689602166414,0.12107216407544912,-9.80206591308117,517.6039592083289,-0.18498291637748482,-0.07736307590268553,-0.08741704344749451,517.6039592083289,0.19399658203125,0.046702880859375004,-9.847571868896486,517.6002362083273,-0.0030142716132104397,-0.009031953290104866,-0.0013048616237938404,517.6039592083289
2025-10-03 16:13:27.925285,0.3671820830181241,0.11968598110601307,-9.802395696043968,517.7330572083265,-0.17079044491052628,0.03928346768952906,-0.024370025396347045,517.7330572083265,0.21136047363281252,0.16570541381835938,-9.708211669921875,517.7293342083285,-0.0029692885000258684,-0.0009236314217559993,-0.0030624535866081715,517.7330572083265
2025-10-03 16:13:28.048704,0.3630182807520032,0.11979584480635823,-9.802550647258759,517.8522252083276,-0.13399450153112413,-0.2774180402979255,0.09598438382148743,517.8522252083276,0.21076171875000002,-0.15941848754882812,-9.804760894775391,517.848502208326,0.006949906703084707,-0.002034837380051613,0.00013206945732235909,517.8522252083276
2025-10-03 16:13:28.185941,0.3613411165773869,0.11986265838146211,-9.802611458301545,517.9912542083257,-0.22198088105767966,-0.011188628878444434,0.03197842240333557,517.9912542083257,0.19040405273437502,0.10612930297851562,-9.771529998779297,517.9875312083277,6.07040710747242e-05,0.0003406688920222223,-0.0012192032299935818,517.9912542083257
2025-10-03 16:13:28.323588,0.36308139413595203,0.1196713630668819,-9.802545969486237,518.120352208327,-0.17641963250935078,-0.046623294772580266,0.02847360134124756,518.120352208327,0.19309844970703127,0.0796343994140625,-9.75775863647461,518.116629208329,-0.0004341108724474907,0.004416104406118393,0.00037043774500489235,518.120352208327
2025-10-03 16:13:28.452104,0.3641164974868298,0.12054598775692285,-9.802498022317886,518.259382208329,-0.13374559286981821,0.13602045211941005,0.014802811145782472,518.259382208329,0.22064117431640626,0.2496807861328125,-9.77257781982422,518.2556592083274,0.00030778534710407257,0.0017692388501018286,-0.013735284097492695,518.259382208329
2025-10-03 16:13:28.581794,0.3757866993919015,0.12133421983569861,-9.802050710320474,518.388481083326,-0.17370688989758493,1.000433089658618,-0.01708205580711365,518.388481083326,0.192799072265625,1.1536509704589843,-9.812694396972656,518.384758083328,-0.005538302473723888,0.022962825372815132,0.005585080944001675,518.388481083326
2025-10-03 16:13:28.730214,0.38028675310313703,0.1215195491630584,-9.801874709129335,518.5374410833283,0.24361587133258583,0.7233235996216536,0.048755253553390505,518.5374410833283,0.6087840270996094,0.7391629028320312,-9.916578369140625,518.5337180833267,0.008796694688498974,-0.0293941218405962,0.07221204787492752,518.5374410833283
2025-10-03 16:13:28.881881,0.4238238052278757,0.12218830618076026,-9.800078444480896,518.6864000833266,0.3864412033930421,-0.8409935521334411,0.12210448086261749,518.6864000833266,0.5011578369140626,-0.8430468750000001,-10.104138336181641,518.6826770833286,0.0010801623575389385,0.03141922503709793,0.015071086585521698,518.6864000833266
2025-10-03 16:13:29.017214,0.4304766941070557,0.12775232473388315,-9.799717086553574,518.8254300833287,0.038198653869330884,-1.8684824395179749,-0.7826755428314209,518.8254300833287,0.44682083129882816,-1.749561767578125,-9.503736877441407,518.821707083327,-0.003289290238171816,0.002005673013627529,0.002571296878159046,518.8254300833287
2025-10-03 16:13:29.151395,0.41769632522016764,0.13207952013239266,-9.800214099884034,518.9545280833263,0.23344960983842614,-0.36469581037759785,0.11969484329223633,518.9545280833263,0.6306385803222656,-0.125738525390625,-9.84113525390625,518.9508050833283,-0.017153915017843246,-0.082301065325737,0.026020459830760956,518.9545280833263
2025-10-03 16:13:29.283696,0.19833172598853707,0.41543498765677217,-9.799193760752678,519.0836270833279,5.507652636766434,-2.779019924104214,-10.445607544183732,519.0836270833279,5.499114532470704,-2.0510348510742187,-21.70217010498047,519.0799040833263,-1.4989733695983887,-0.30924123525619507,-0.8452696204185486,519.0836270833279
2025-10-03 16:13:29.420827,0.37046997237950563,4.084172544479371,-8.911698106527329,519.2127250833291,-1.1401693376898767,-0.8829301482439041,0.26717565536499027,519.2127250833291,-0.247884521484375,3.3858091735839846,-7.868237915039063,519.2090020833275,-3.117095708847046,0.06502665579319,0.11408531665802002,519.2127250833291
2025-10-03 16:13:29.548438,0.19600709231570365,2.8729560282826423,-9.377834045290948,519.3517539583263,-1.9529036620259286,-0.6143032139539719,6.728944197893143,519.3517539583263,-1.4403048706054689,1.7968634033203126,-2.3812481689453127,519.3480309583283,3.180840253829956,0.26970744132995605,0.43838533759117126,519.3517539583263
2025-10-03 16:13:29.675989,0.8080198605358601,-1.1690197920799257,-9.706525332927704,519.4808529583279,-0.7485933653265239,0.2997772447764874,9.79783428311348,519.4808529583279,0.06451583862304688,-0.8695417785644531,0.14415023803710938,519.4771299583263,2.8773233890533447,0.6954878568649292,1.0945262908935547,519.4808529583279
2025-10-03 16:13:29.819628,1.5418705679476261,-4.113862951397896,-8.77124915599823,519.6099509583291,-0.33822400331497193,1.9526583713293078,6.651659209728241,519.6099509583291,1.1779005432128906,-2.1342617797851564,-2.3141876220703126,519.6062279583275,1.4657089710235596,0.7825369238853455,0.41855648159980774,519.6099509583291
2025-10-03 16:13:29.981939,-0.45600260440260176,-0.37085950657725336,-9.792378246188164,519.7787719583284,1.682102879136801,-1.5884161587059498,2.9313939785957337,519.7787719583284,-1.8555413818359376,-2.3870860290527345,-0.384400634765625,519.7750489583268,-3.9517343044281006,0.5945302248001099,0.3905850648880005,519.7787719583284
2025-10-03 16:13:30.100597,0.23172554003074766,0.20754556741565466,-9.805064365267754,519.9078709583264,-23.75411010503769,-1.7608654586970807,29.052492063045502,519.9078709583264,-14.16698959350586,-2.8707302856445316,10.202184448242187,519.9041479583284,-2.861584424972534,-4.800597667694092,-0.3310942053794861,519.9078709583264
2025-10-03 16:13:30.224564,0.3075778324529529,0.14857060516253115,-9.804051627516747,520.0270389583275,0.0741284053400159,-0.3150244443118572,1.1867719388008118,520.0270389583275,1.6615447998046875,-0.3094065856933594,-6.838978271484375,520.0233159583258,-0.07675603032112122,0.022400032728910446,0.022422682493925095,520.0270389583275
2025-10-03 16:13:30.344773,0.2978917187266052,0.14743818221613766,-9.80436971604824,520.1561369583287,-0.3719875806570053,0.18846332531422377,0.6444660758972168,520.1561369583287,0.10328521728515626,0.3525169372558594,-9.615254974365234,520.1524139583271,0.03357738256454468,0.03389196842908859,0.03192729875445366,520.1561369583287
2025-10-03 16:13:30.483949,0.2941528445854783,0.14610583017580211,-9.804501278400421,520.2852364583268,0.07961989101022482,-0.3468384137749672,0.28669366121292117,520.2852364583268,0.3811074829101563,-0.14474899291992188,-9.919572143554689,520.2815134583288,0.0205391813069582,-0.015665706247091293,0.005015125498175621,520.2852364583268
2025-10-03 16:13:30.634843,0.2982454387284815,0.1336125504411757,-9.804553903341294,520.4341954583288,0.0984296345897019,0.10020121302455665,-0.08058866500854493,520.4341954583288,0.3695814514160156,0.20567230224609376,-9.917925567626954,520.4304724583271,0.0010567465797066689,-0.0037059178575873375,-0.0017021005041897297,520.4341954583288
2025-10-03 16:13:30.763507,0.2951303345896304,0.13358642069622875,-9.80465038239956,520.5732254583272,-0.22178282490000129,0.15381594132632018,0.13939879059791566,520.5732254583272,0.2697390747070313,0.3035687255859375,-9.829010467529297,520.5695024583292,0.00960683636367321,0.016109250485897064,0.010082063265144825,520.5732254583272
2025-10-03 16:13:30.898912,0.29065838405862454,0.1347287473641336,-9.804766741991044,520.7023234583285,-0.011039872057735921,-0.44862601295113563,0.10523760259151459,520.7023234583285,0.276624755859375,-0.30731094360351563,-9.749525756835938,520.6986004583268,0.002928540576249361,-0.007570948917418718,-0.0011713122949004173,520.7023234583285
2025-10-03 16:13:31.033334,0.2822460862621665,0.13732715863734485,-9.804977826476097,520.8314224583264,-0.014752305820584299,-0.25662906903773547,0.00844922661781311,520.8314224583264,0.25357269287109374,-0.09310638427734376,-9.845625915527345,520.8276994583284,0.002374077681452036,0.006304986774921417,-0.010025554336607456,520.8314224583264
2025-10-03 16:13:31.158466,0.29127574039623144,0.13382527945563197,-9.804762648940088,520.9605204583277,-0.00072989696636796,-0.26405444819480184,0.040716501474380495,520.9605204583277,0.2903961181640625,-0.1035845947265625,-9.836943969726564,520.956797458326,0.0009574922733008862,0.004113802686333656,-0.009106285870075226,520.9605204583277
2025-10-03 16:13:31.301126,0.2938345002382994,0.13267604576423764,-9.804698914289474,521.1094804583263,-0.051638204958289864,0.22852281901985408,-0.06801890552043915,521.1094804583263,0.2609074401855469,0.3339555358886719,-9.828860778808595,521.1057574583283,-0.001420819666236639,-0.00742837181314826,-0.005041874013841152,521.1094804583263
2025-10-03 16:13:31.438428,0.2964431258663535,0.1376263898983598,-9.804556242227555,521.248509458328,-0.03179339457303286,-0.10753892049193382,0.010869973897933961,521.248509458328,0.2555186462402344,0.03981719970703125,-9.78021194458008,521.2447864583264,-0.0017025887500494719,0.006937451660633087,-0.007441352121531963,521.248509458328
2025-10-03 16:13:31.560191,0.29091701371595263,0.13757757478393615,-9.804722303152085,521.3676770416605,-0.0815024020895362,0.30325575336813926,-0.006178168058395386,521.3676770416605,0.2369572448730469,0.4324507141113281,-9.773775329589844,521.3639540416625,-0.0005435883067548275,-0.00918565783649683,-0.005868193227797747,521.3676770416605
2025-10-03 16:13:31.702299,0.28663736348971725,0.13975526061840357,-9.804815273880958,521.5067060416623,-0.11659097677096725,0.13671979738399387,0.040470918416976934,521.5067060416623,0.15343093872070312,0.27303222656250004,-9.818232879638673,521.5029830416606,-0.0014385399408638477,-0.0015442169969901443,0.009992247447371483,521.5067060416623
2025-10-03 16:13:31.831903,0.2995623778738082,0.13780839362181724,-9.804459178447724,521.6358050416602,-0.08550743417814374,0.4088548600673676,-0.013476662635803223,521.6358050416602,0.19489471435546876,0.5872288513183594,-9.806557159423829,521.6320820416622,-0.005165779031813145,0.011985396035015583,0.01460062526166439,521.6358050416602
2025-10-03 16:13:31.967140,0.29796992523595695,0.1359708512853831,-9.804529345035553,521.774834041662,-0.06430588703602552,0.6545352736115456,0.057550050616264344,521.774834041662,0.2321672058105469,0.8084687805175782,-9.738299102783204,521.7711110416603,0.011795071884989738,3.745267167687416e-05,5.772896111011505e-05,521.774834041662
2025-10-03 16:13:32.111077,0.19898058420047166,0.15807896353304388,-9.806705678701402,521.9039320416596,0.7449564702808857,-2.171542018800974,-1.6031650292873383,521.9039320416596,1.218915252685547,-2.482587432861328,-11.949351196289063,521.9002090416616,-0.1970577836036682,-0.6022543907165527,-0.10765630751848221,521.9039320416596
2025-10-03 16:13:32.247760,0.2846960878930986,3.2177868005633354,-9.262876616120339,522.0528920416618,-1.3452408385276795,-1.570911787748337,2.243524020910263,522.0528920416618,-1.2507989501953125,1.766177215576172,-7.060517578125,522.0491690416602,-2.876858949661255,-0.148307204246521,0.06526625156402588,522.0528920416618
2025-10-03 16:13:32.370070,2.6038934764266015,2.6785331842303277,-9.070903170704842,522.1819910416598,-1.8584439396858217,1.9844198620319367,5.412512006163597,522.1819910416598,-0.015567626953125,4.0107595825195315,-2.974165191650391,522.1782680416618,2.8846395015716553,0.22887639701366425,0.7437307238578796,522.1819910416598
2025-10-03 16:13:32.497899,2.3360012447834015,-1.1903889533132315,-9.453156707882881,522.3011592916591,-2.302471117526293,0.09421852469444275,9.36020001232624,522.3011592916591,-0.055085449218750006,-1.0259664916992188,-0.0041912841796875,522.2974362916611,2.6037349700927734,-1.02293860912323,1.1297216415405273,522.3011592916591
2025-10-03 16:13:32.626535,0.7681735709309578,-3.815368439555168,-9.004941900372506,522.4302572916604,-1.0961415579915048,3.3667516359686855,9.04251376926899,522.4302572916604,-0.3396437072753906,-0.4439767456054688,-0.00718505859375,522.4265342916624,1.65382719039917,-0.416222482919693,0.3117300868034363,522.4302572916604
2025-10-03 16:13:32.753537,-0.48786923535168175,-2.898172145783901,-9.359415900707246,522.559356291662,1.7477991244196893,-31.425151841640474,-35.01310861587525,522.559356291662,-4.881798248291016,-15.08428207397461,-8.844956817626954,522.5556332916603,-4.137777805328369,-3.7525272369384766,-0.2322198897600174,522.559356291662
2025-10-03 16:13:32.884022,1.5524676230549812,-0.21840931037440897,-9.683919412493706,522.6884542916596,5.752192550897599,3.360225850939751,-62.201697778701785,522.6884542916596,16.91587326049805,5.704487457275391,-46.405449371337895,522.6847312916616,3.053377628326416,-6.552364349365234,-1.2580078840255737,522.6884542916596
2025-10-03 16:13:33.006474,0.544439475350082,0.08359951511956752,-9.79452534377575,522.8175532916612,10.504085547924042,-0.15904262121766807,-24.38584796190262,522.8175532916612,3.3090188598632815,-2.684966583251953,3.2814761352539064,522.8138302916595,0.6174439787864685,-3.149397373199463,-0.6242344975471497,522.8175532916612
2025-10-03 16:13:33.135239,0.46958228766918186,0.16851715710014106,-9.797306864261628,522.9466522916591,6.205486834645272,0.08640277080237865,3.1303197634220123,522.9466522916591,-0.7632627868652344,0.047601013183593756,-9.95894027709961,522.9429292916611,-0.21421396732330322,-0.08437326550483704,-0.007004723418504,522.9466522916591
2025-10-03 16:13:33.266815,0.470869808010757,0.16288747614249588,-9.797340778112412,523.0757502916604,-0.15682279888540507,-0.3020979681238532,0.16666669607162476,523.0757502916604,0.4448748779296875,-0.09145980834960937,-10.341544647216798,523.0720272916624,0.039190251380205154,-0.002781488234177232,-0.002467632759362459,523.0757502916604
2025-10-03 16:13:33.391655,0.4884614852070809,0.1670316536910832,-9.796408147215844,523.204849291662,0.30653531044721605,-1.0031928292661907,-0.7587417197227478,523.204849291662,0.12693603515625002,-0.9577084350585938,-10.446775817871094,523.2011262916603,0.012599125504493713,0.08734660595655441,-0.023371346294879913,523.204849291662
2025-10-03 16:13:33.551971,0.4808238886669278,0.16916290897876024,-9.796748455166817,523.3538089166614,-0.30149680126458406,0.2620902953669429,-0.16892722964286805,523.3538089166614,0.13576766967773438,0.3333567810058594,-9.783056030273437,523.3500859166597,-0.010554062202572823,0.0006498117581941187,0.006418233271688223,523.3538089166614
2025-10-03 16:13:33.685310,0.4895447549968958,0.17190373649820687,-9.796271322369575,523.4928379166595,-0.04826229672878981,-0.0561943188495934,0.04794132113456726,523.4928379166595,0.3908372497558594,0.14385086059570312,-10.027797088623048,523.4891149166615,0.002143433317542076,0.006780758500099182,0.0035710094962269068,523.4928379166595
2025-10-03 16:13:33.824034,0.48602951858192683,0.17825447050854565,-9.79633096396923,523.6318669166612,-0.18994526557624342,0.06558843724429608,0.0920112007856369,523.6318669166612,0.3400927734375,0.26315277099609374,-9.743987274169923,523.6281439166596,-0.004114196635782719,0.005718956235796213,0.0034519662149250507,523.6318669166612
2025-10-03 16:13:33.968330,0.45795663423836236,0.17709836633875967,-9.797704474925995,523.7708959166594,0.09933447293937207,-0.22604655973613264,-0.07860762834548951,523.7708959166594,0.5703140258789062,-0.03143463134765625,-9.827663269042969,523.7671729166614,-0.0038134101778268814,-0.02439170889556408,0.043062567710876465,523.7708959166594
2025-10-03 16:13:34.103379,0.4509862780943513,0.17743861947208645,-9.798020809292794,523.9099259166615,-0.08424894891679287,-0.7067379724234343,-0.06406969606876374,523.9099259166615,0.33769775390625,-0.5236111450195313,-9.899813232421875,523.9062029166598,0.004003021400421858,-0.016098475083708763,0.007077455520629883,523.9099259166615
2025-10-03 16:13:34.246230,0.4421480654552579,0.17790699971839785,-9.798416665792466,524.0489549166596,-0.1361843203380704,-0.6585575001686812,0.04200522780418396,524.0489549166596,0.28979736328125,-0.4493655395507813,-9.803563385009767,524.0452319166616,0.002032474149018526,-0.0006676693446934223,-0.0007868227548897266,524.0489549166596
2025-10-03 16:13:34.375626,0.4465901951864362,0.1765461150929332,-9.798240079879761,524.1879839166613,-0.11682590693235398,-0.14825494688004257,-0.0425969660282135,524.1879839166613,0.33769775390625,0.04939727783203125,-9.781110076904298,524.1842609166597,-0.0003082873299717903,-0.00585287855938077,0.0006133636925369501,524.1879839166613
2025-10-03 16:13:34.506266,0.44685028664767745,0.17356971787288786,-9.798280425667762,524.3170829166593,-0.14672436509281397,-0.04962745713070035,0.022709416151046755,524.3170829166593,0.31449600219726564,0.13965957641601562,-9.756710815429688,524.3133599166613,-0.0026229845825582743,0.011814964935183525,0.009977082721889019,524.3170829166593
2025-10-03 16:13:34.653976,0.465969768203795,0.16011543910950424,-9.79761910557747,524.456111916661,0.2800788157805801,0.3768180020526052,-0.161919926404953,524.456111916661,0.8530760192871094,0.44143203735351566,-9.89861572265625,524.4523889166594,0.014553257264196873,0.032629285007715225,0.09044961631298065,524.456111916661
2025-10-03 16:13:34.786751,0.49006026014685633,0.12448904849588871,-9.796958954930306,524.5951409166591,-0.1846953795477748,-0.3080074566230178,0.33378947496414185,524.5951409166591,0.33784744262695315,-0.17154327392578125,-9.43488006591797,524.5914179166612,-0.03285074979066849,-0.0015963953919708729,0.3420501947402954,524.5951409166591
2025-10-03 16:13:34.933993,0.4797065953910351,0.1462526226975024,-9.797174132466317,524.7341709166612,-0.31579737313091755,0.2559609881043434,-0.0026487886905670168,524.7341709166612,0.11825408935546876,0.39008880615234376,-9.77736785888672,524.7304479166596,-0.006473047658801079,-0.000822516914922744,0.15937988460063934,524.7341709166612
2025-10-03 16:13:35.070046,0.4845410002022982,0.15277196665294468,-9.796837332844735,524.8731999166594,-0.32482302557677034,-0.28285141926258806,0.045513557195663454,524.8731999166594,0.2124082946777344,-0.12963043212890626,-9.62992446899414,524.8694769166614,-0.004201527684926987,0.057006195187568665,-0.007685439195483923,524.8731999166594
2025-10-03 16:13:35.193449,0.4920566822960973,0.1566277394257486,-9.796401715278625,525.002298916661,-0.11409258943051101,-0.3474808035045862,-0.054614163637161255,525.002298916661,0.3661386108398438,-0.1359173583984375,-9.865235137939454,524.9985759166593,0.0030392175540328026,7.696694228798151e-05,0.002210557460784912,525.002298916661
2025-10-03 16:13:35.324334,0.4735568594187498,0.14921357961371542,-9.797425562739372,525.121466916662,-0.14753493536263704,0.23428886801004412,0.02469980835914612,525.121466916662,0.32407608032226565,0.38170623779296875,-9.801617431640626,525.1177439166604,0.0061905100010335445,-0.019110726192593575,-0.0014541242271661758,525.121466916662
2025-10-03 16:13:35.455062,0.46558440014719965,0.1499104032665491,-9.797796860933305,525.2604959166601,-0.16351263485848905,0.2734092623367906,0.005761261582374573,525.2604959166601,0.27767257690429686,0.396375732421875,-9.796977081298829,525.2567729166622,-0.00012299977242946625,0.0006329669849947095,-0.0007533635944128036,525.2604959166601
2025-10-03 16:13:35.586841,0.4697783521190286,0.1528989151865244,-9.797552447319031,525.389595291661,-0.14151098761707545,-0.18657887734472753,0.008957934379577637,525.389595291661,0.32901580810546877,-0.03113525390625,-9.796378326416017,525.3858722916593,-0.0013628159649670124,0.00301186996512115,-0.00011614430695772171,525.389595291661
2025-10-03 16:13:35.728572,0.46599703084677463,0.15493668811395764,-9.79770389020443,525.5385552916596,-0.16736781377345325,0.43453751228749754,-0.023076621294021608,525.5385552916596,0.31883697509765624,0.6469546508789062,-9.813891906738283,525.5348322916616,-0.006770283915102482,-0.0011484844144433737,-0.0025604376569390297,525.5385552916596
2025-10-03 16:13:35.853576,0.47776846267282963,0.16030739223584534,-9.79704958677292,525.6577232916607,-0.09621180396527053,0.8020414479821921,0.07117230892181396,525.6577232916607,0.365240478515625,1.011895751953125,-9.773625640869142,525.6540002916627,-0.0014113755896687508,0.004145360551774502,0.0032371398992836475,525.6577232916607
2025-10-03 16:13:35.982422,0.4575072391703725,0.16374860655516388,-9.797954735755921,525.7868212916619,-0.11965994272381068,-0.4899203655123711,-0.15095347344875337,525.7868212916619,0.35820510864257815,-0.3511697387695313,-9.753567352294922,525.7830982916603,-0.00508308969438076,-0.011949319392442703,-0.0012664725072681904,525.7868212916619
2025-10-03 16:13:36.111358,0.45671866904944186,0.16425188736990096,-9.797988649606705,525.9159202916599,-0.413159141689539,-0.19329144436866047,0.023312848806381226,525.9159202916599,-0.07753875732421875,0.06676116943359375,-9.642498321533203,525.9121972916619,-0.012204915285110474,-0.01602102629840374,-0.011500734835863113,525.9159202916599
2025-10-03 16:13:36.241448,0.3800790307670832,0.227197693772614,-9.800003600120545,526.0450192916614,4.289161307215691,-1.562121668457985,-1.7022297263145447,526.0450192916614,5.0638197326660155,-1.5989749145507812,-12.161160736083986,526.0412962916598,-0.34247028827667236,-0.1920124739408493,-0.5048878788948059,526.0450192916614
2025-10-03 16:13:36.362153,0.32748007345944646,3.5739880684018135,-9.12992145717144,526.1741172916591,-3.567193019092083,-3.276406891644001,5.941103224754333,526.1741172916591,-1.9787351989746094,-0.49517028808593755,-2.399210815429688,526.1703942916611,-3.1508941650390625,0.4432643949985504,-1.4638886451721191,526.1741172916591
2025-10-03 16:13:36.486089,1.875652002990246,3.5360212200880055,-8.956258567571641,526.2932848333257,-2.347321308106184,-1.170191281735897,8.071598812937737,526.2932848333257,-0.21210891723632813,1.9987934875488282,-0.9934840393066406,526.2895618333278,2.179931163787842,0.7844422459602356,0.052151672542095184,526.2932848333257
2025-10-03 16:13:36.616585,5.240072354078293,0.24355071142315865,-8.28965844154358,526.4223838333273,-3.9988534820079806,-3.4440453949570657,4.720031518936158,526.4223838333273,1.5579602050781252,-2.757864990234375,-3.17819091796875,526.4186608333257,1.0599991083145142,5.7174072265625,2.593928813934326,526.4223838333273
2025-10-03 16:13:36.748024,7.813214446306229,-1.2461588922142983,-5.799732168316841,526.5415518333284,-5.04606758594513,-2.0677999877929687,2.5318777066469194,526.5415518333284,3.2988400268554687,-3.466341705322266,-3.902834014892578,526.5378288333268,-0.766494870185852,1.2322522401809692,0.6620170474052429,526.5415518333284
2025-10-03 16:13:36.873010,7.4808399975299835,0.7059056212753058,-6.306731373667717,526.6805808333265,15.192661385536194,-4.73088570535183,-49.50725226402283,526.6805808333265,29.697044677734375,-3.751648406982422,-45.262575988769534,526.6768578333285,-2.2296879291534424,-0.23569102585315704,-0.4862960875034332,526.6805808333265
2025-10-03 16:13:36.998568,5.56480156838894,0.23321542885154486,-8.075559716820717,526.8096798333281,-0.5327170139551163,-0.23695784786716104,3.451077548861504,526.8096798333281,6.1981608581542975,0.8690927124023438,-7.117698669433594,526.8059568333265,-0.639803409576416,-2.2223639488220215,1.7790967226028442,526.8096798333281
2025-10-03 16:13:37.135696,1.6354157857596876,0.33841900795698165,-9.666800519227982,526.9387788333261,-5.758441470265389,1.7718925765156748,-13.174652777910234,526.9387788333261,-6.152505798339844,1.9405645751953127,-23.799458770751954,526.9350558333281,-0.5753464698791504,-3.131779670715332,0.5138331651687622,526.9387788333261
2025-10-03 16:13:37.258644,0.32481546074151996,0.2017528770491481,-9.802544215321541,527.0678778333277,-2.12347512871027,0.1898327797651291,-12.629206960201264,527.0678778333277,-4.777764587402344,-0.4183799743652344,-13.39250015258789,527.064154833326,0.04643993824720383,-0.21473853290081024,0.19660860300064087,527.0678778333277
2025-10-03 16:13:37.381859,0.3537368126213551,0.14250421028584243,-9.802583391666413,527.1969758333289,-0.19297116313129664,-0.3378480273485184,1.0912997710704804,527.1969758333289,-0.45235931396484375,-0.2664459228515625,-9.531878356933595,527.1932528333273,-0.005414479877799749,0.03685735911130905,0.004693537950515747,527.1969758333289
2025-10-03 16:13:37.505331,0.9397375293821096,0.09219358823262155,-9.764452528953553,527.3161440833283,-0.7815163323283196,1.7402956849336626,-3.5201243948936463,527.3161440833283,0.37901184082031253,1.7609381103515627,-13.114677886962891,527.3124210833266,0.23592163622379303,1.3064368963241577,-0.12265849858522415,527.3161440833283
2025-10-03 16:13:37.631253,0.9878298548609019,-0.18860106378793717,-9.758314121961595,527.4452430833262,-1.5249132040143014,-0.17169968694448473,2.039017653465271,527.4452430833262,-0.354462890625,-0.32302825927734374,-7.777376861572266,527.4415200833282,0.22042536735534668,-1.5690019130706787,-0.4807088077068329,527.4452430833262
2025-10-03 16:13:37.781986,0.5000069221481681,-0.1202785690035671,-9.796512227654457,527.5842730833283,0.5056019035354257,-0.608406114242971,-0.7023558497428894,527.5842730833283,1.0490185546875002,-0.72090087890625,-10.52266799926758,527.5805500833267,-0.20426304638385773,1.001105546951294,-0.23523680865764618,527.5842730833283
2025-10-03 16:13:37.915582,1.0785890205949547,0.10648082113824785,-9.74994383275509,527.7233020833264,0.08583953775465489,-0.5167775771766902,-0.015598032474517824,527.7233020833264,1.1686198425292968,-0.3740721130371094,-9.806257781982422,527.7195790833284,-0.10143735259771347,-0.4838114380836487,-0.09311263263225555,527.7233020833264
2025-10-03 16:13:38.060463,0.6928052269667387,0.20658713568001988,-9.783325002193452,527.8623320833285,0.06896067269146443,-0.014536507017910481,-0.020687448978424075,527.8623320833285,0.7711962890625,0.19369720458984377,-9.781110076904298,527.8586090833269,-0.03117430955171585,0.20368652045726776,-0.10347925126552582,527.8623320833285
2025-10-03 16:13:38.181188,0.760697540268302,0.21669538183137776,-9.778061338663102,527.9914310833265,0.1676719055324793,-0.3096520956605673,-0.42172809004783635,527.9914310833265,1.5376025390625,-0.09235794067382813,-10.69810317993164,527.9877080833285,0.08766951411962509,-0.5402018427848816,0.00983774196356535,527.9914310833265
2025-10-03 16:13:38.315386,0.2736516111530364,0.13639037073589863,-9.805236273407937,528.1205290833277,0.5533785890042782,0.23364015597850085,0.9138741981983185,528.1205290833277,0.8303233337402344,0.40655456542968754,-8.812923431396484,528.1168060833261,0.16246338188648224,-0.05397368595004082,0.01948775351047516,528.1205290833277
2025-10-03 16:13:38.462659,0.31364786356687546,0.129641423067078,-9.804127641320228,528.2496280833293,-0.3355024533346296,0.23829344328492882,-0.0206915420293808,528.2496280833293,-0.0053887939453125,0.35521133422851564,-9.640252990722656,528.2459050833277,0.002108796965330839,0.022285647690296173,-0.0018287119455635548,528.2496280833293
2025-10-03 16:13:38.587145,0.3125703313574195,0.1301751094032079,-9.804155123233796,528.3985884166614,-0.16018721368163824,-0.3165375575423241,0.04564804315567017,528.3985884166614,0.15328125,-0.17932708740234377,-9.77736785888672,528.3948654166597,-0.00012200744822621346,-0.005714124999940395,-0.006751790642738342,528.3985884166614
2025-10-03 16:13:38.714090,0.299669235739857,0.13350191929377617,-9.804511803388596,528.5177564166625,1.2557462793588638,0.10061122161336243,0.29972827434539795,528.5177564166625,1.18074462890625,0.15088623046875002,-9.88708969116211,528.5140334166608,0.00614421721547842,-0.044354114681482315,-0.009735099039971828,528.5177564166625
2025-10-03 16:13:38.839484,0.2969220128282905,0.13514760900288822,-9.804573783874512,528.6468554166604,-0.14768237655982375,-0.10760489352978767,-0.1250269192457199,528.6468554166604,0.16929794311523438,0.017064514160156252,-9.922416229248048,528.6431324166624,0.0023236009292304516,0.0009518209262751043,0.0029813917353749275,528.6468554166604
2025-10-03 16:13:38.967535,0.30230632999911905,0.13484893505461515,-9.80441181600094,528.775954416662,-0.14932451225817203,-0.1335017639771104,0.03288415610790253,528.775954416662,0.17004638671875,0.016465759277343752,-9.767638092041016,528.7722314166604,-0.004825619515031576,0.01072046160697937,0.0008779191412031651,528.775954416662
2025-10-03 16:13:39.113872,0.3214441389217973,0.1385494368430227,-9.803756343126297,528.9249144166606,-0.1334350326284766,0.033742308095097547,-0.05264949917793274,528.9249144166606,0.178428955078125,0.17797988891601563,-9.849817199707031,528.9211914166626,-0.003616936504840851,0.013836987316608429,0.0008515133522450924,528.9249144166606
2025-10-03 16:13:39.257155,0.3232269549742341,0.14201489883475008,-9.803647000193596,529.0639444166591,-0.12833220407366752,0.11994037153199316,-0.0641346001625061,529.0639444166591,0.17528549194335938,0.21600082397460937,-9.884095916748047,529.0602214166611,-0.00239747017621994,-0.008445617742836475,-0.005159268621355295,529.0639444166591
2025-10-03 16:13:39.378104,0.30559630243107677,0.1477135586645454,-9.804124717712403,529.1831124166602,0.26052638445049525,-0.5666923335939646,0.0023593515157699584,529.1831124166602,0.6800358581542969,-0.46178970336914066,-9.810748443603517,529.1793894166622,-0.007859556004405022,-0.053220123052597046,-0.045771896839141846,529.1831124166602
2025-10-03 16:13:39.523401,0.028559779250063002,1.3387350802123548,-9.718185265660287,529.3221427916615,2.476929959356785,-4.464684196114541,-14.215098145008088,529.3221427916615,2.1459375,-3.473975830078125,-23.33497467041016,529.3184197916598,-3.3605880737304688,0.22577157616615295,-0.7085282206535339,529.3221427916615
2025-10-03 16:13:39.656890,1.6017269065976143,4.215960014462471,-8.71184495329857,529.4611717916596,-1.2767528401315213,3.9583910420537,4.57400023162365,529.4611717916596,-0.2130070495605469,7.440577239990235,-6.169720001220703,529.4574487916616,1.6765577793121338,4.576903820037842,-0.10082549601793289,529.4611717916596
2025-10-03 16:13:39.786265,1.5682599292695523,0.6239066078513861,-9.663719036579133,529.5902707916612,-1.3277097165584566,-0.28471182055771355,8.237931632995606,529.5902707916612,0.12948074340820312,0.029189300537109376,-1.4940431213378906,529.5865477916595,4.037683963775635,-2.8227105140686035,0.5712679624557495,529.5902707916612
2025-10-03 16:13:39.906697,-0.5201912182196975,-3.66985083013773,-9.082823889255524,529.7094397916626,0.5444408275187016,1.8262848383188248,9.054084239602089,529.7094397916626,0.024399261474609375,-1.8157241821289063,0.11690689086914063,529.705716791661,3.0688788890838623,-0.502544641494751,0.2109295278787613,529.7094397916626
2025-10-03 16:13:40.039732,4.1076090618968015,-0.8259037157893181,-8.87025947391987,529.8484687916607,-4.900810177624225,-1.0402654921263457,24.270236814022066,529.8484687916607,3.4524206542968754,-1.0199789428710937,-8.4544189453125,529.8447457916591,-3.7425742149353027,3.984884023666382,0.3642132878303528,529.8484687916607
2025-10-03 16:13:40.158772,2.5348375672101975,1.4761067873239517,-9.361188191771507,529.9676377916621,-27.690776109695435,-7.116077821254731,7.636922063827515,529.9676377916621,-4.783303070068359,0.7729925537109376,-35.22654602050781,529.9639147916605,0.11453992128372192,-2.499016761779785,-0.16530436277389526,529.9676377916621
2025-10-03 16:13:40.295038,0.07594362775795162,1.0019082690775396,-9.758408846855165,530.0967367916601,-2.233257479667664,0.2797267037630081,1.1321460807323456,530.0967367916601,-6.09816879272461,2.2742207336425784,-14.663058013916016,530.0930137916621,1.8133821487426758,0.8475826382637024,-0.4389631152153015,530.0967367916601
2025-10-03 16:13:40.418309,0.29997478930279614,0.2968293527327478,-9.800916350483895,530.2258357916617,-4.770129293203354,1.708700108975172,-20.648162705898287,530.2258357916617,-4.028722229003907,0.7363188171386719,-13.134287109375,530.22211279166,0.8358352780342102,0.15270771086215973,0.007363887503743172,530.2258357916617
2025-10-03 16:13:40.549399,0.30630578896030786,0.15514749851077797,-9.803992570638657,530.3549347916596,0.4831525788456202,-0.3292354441434145,-1.1104131495952607,530.3549347916596,1.4929953002929688,0.4113446044921875,-15.947836303710938,530.3512117916616,0.1624998301267624,-0.06965640187263489,0.03236229717731476,530.3549347916596
2025-10-03 16:13:40.681713,0.30648031007498505,0.14820784024894237,-9.804090803861618,530.4840337916612,-0.12850045770406723,-0.12051543605513872,0.29361851871013644,530.4840337916612,0.2893482971191406,0.06601272583007813,-9.921967163085938,530.4803107916596,0.014583133161067963,-0.006489336956292391,-0.002203436102718115,530.4840337916612
2025-10-03 16:13:40.819430,0.30902348343282937,0.1446027577109635,-9.80406741499901,530.6230627916593,-0.2539379611238837,-0.10792897545732558,-0.029585741758346558,530.6230627916593,0.20582199096679688,0.04939727783203125,-9.731114044189454,530.6193397916613,0.0029673180542886257,0.009076428599655628,-0.00466728862375021,530.6230627916593
2025-10-03 16:13:40.955443,0.28639477713033556,0.15199210340157152,-9.804642196297646,530.7620927916614,0.04965647393837572,-0.15094424581155183,-0.13079870581626893,530.7620927916614,0.29234207153320313,-0.013022918701171875,-10.189909973144532,530.7583697916598,-0.05052248015999794,-0.19809524714946747,0.0371294729411602,530.7620927916614
2025-10-03 16:13:41.085173,0.16984586376696825,3.4187892240285875,-9.193426896929742,530.8911917916594,-5.759671724438667,-2.546553340852261,0.07499054074287415,530.8911917916594,-6.393205261230469,1.2481045532226562,-11.745774536132814,530.8874687916614,-3.628016471862793,0.04335801675915718,-0.31178009510040283,530.8911917916594
2025-10-03 16:13:41.219811,-0.231899184063077,2.831253101527691,-9.389690444469453,531.020290791661,-3.0775688150525093,1.5733366280794145,6.384991092681885,531.020290791661,-3.010389862060547,3.9847137451171877,-2.844834136962891,531.0165677916593,2.7532906532287598,-1.75575852394104,-0.5735853314399719,531.020290791661
2025-10-03 16:13:41.354415,-5.094950893521309,-1.243710224479437,-8.290402207374573,531.1593207916594,5.721098812222481,1.596376704275608,8.325579056739807,531.1593207916594,1.0020162963867187,0.30222152709960937,0.18770965576171875,531.1555977916614,2.576948642730713,-1.285198450088501,-1.1582138538360596,531.1593207916594
2025-10-03 16:13:41.484378,-2.9717912220954896,-3.628368635773659,-8.616232452392579,531.288419791661,3.230902982354164,2.952973712682724,8.347243575453758,531.288419791661,0.23321502685546877,-0.6845265197753907,-0.43499542236328126,531.2846967916594,1.4480667114257812,4.155150413513184,-0.13265863060951233,531.288419791661
2025-10-03 16:13:41.619932,2.1234612415730956,-2.1384374226629737,-9.335635859370232,531.4274497083279,-3.945322807431221,-15.43756265759468,-39.34103988647461,531.4274497083279,-17.574803009033204,-19.938836975097658,-0.7830216979980469,531.4237267083263,3.3263862133026123,4.2280988693237305,-0.3966043293476105,531.4274497083279
2025-10-03 16:13:41.747457,0.4142202651500702,0.5070285510644317,-9.788127905130386,531.546617708329,-16.88671553492546,5.696072144508362,57.839104213714606,531.546617708329,-20.93396759033203,4.320914611816407,48.49510391235352,531.5428947083274,-2.458141565322876,0.584713876247406,-2.255943536758423,531.546617708329
2025-10-03 16:13:41.877693,0.3412215053290129,0.09469443323090673,-9.803604315519333,531.675716708327,3.0103088781237606,0.19180975992232563,-5.498023442029953,531.675716708327,3.2519874572753906,-2.7654991149902344,-40.437958831787114,531.6819247083258,2.4646244049072266,0.2619367241859436,-0.06848693639039993,531.675716708327
2025-10-03 16:13:42.010512,0.3434086197987199,0.12065964301116765,-9.80324295759201,531.814746708329,-0.2630258498713374,0.7839093053340912,0.708757381439209,531.814746708329,0.3691323852539063,1.0367440795898437,-10.43794418334961,531.8110237083274,0.0598209947347641,0.035247594118118286,-0.009357010014355183,531.814746708329
2025-10-03 16:13:42.144722,0.3615312241762877,0.1231313798390329,-9.80256292641163,531.9537767083275,0.6499155347049237,0.4527211469784379,0.9969736576080322,531.9537767083275,0.6575825500488282,0.6005511474609375,-8.92189682006836,531.9500537083259,-8.530588820576668e-05,-0.016849810257554054,-0.0033572842366993427,531.9537767083275
2025-10-03 16:13:42.272927,0.34385267928242685,0.11878859795629979,-9.803254652023316,532.0828757083291,0.005221453942358494,-0.014605220938101411,0.37630574941635136,532.0828757083291,0.43424697875976564,0.09505233764648438,-9.377100219726563,532.0791527083275,-0.0110684335231781,-0.008149552159011364,0.0065269386395812035,532.0828757083291
2025-10-03 16:13:42.408560,0.363369990773499,0.12951543384231629,-9.802412068247795,532.211974708327,0.008456718362867833,-0.5139160960167647,-0.0803360652923584,532.211974708327,0.49187713623046875,-0.3921844482421875,-9.900112609863282,532.208251708329,0.006293786223977804,-0.028776677325367928,0.009932005777955055,532.211974708327
2025-10-03 16:13:42.533665,0.3728002339974046,0.13530789580196143,-9.801979374289512,532.3410745416622,-0.04303601883351803,-1.0296980385482313,0.16127790212631227,532.3410745416622,0.4412823486328125,-0.8102650451660157,-9.795779571533204,532.3373515416606,-0.004178499337285757,0.021541042253375053,-0.007342569530010223,532.3410745416622
2025-10-03 16:13:42.660629,0.3776394993066788,0.1341665010340512,-9.801809220314027,532.4701735416602,0.5029792080447077,-1.0578955782204866,0.33220254063606264,532.4701735416602,0.5044509887695313,-0.8891510009765625,-9.754914550781251,532.4664505416622,0.007939615286886692,0.0017481478862464428,-0.003299085423350334,532.4701735416602
2025-10-03 16:13:42.805827,0.3672305418178439,0.1272645024955273,-9.802300386428833,532.6191345416592,-0.09749139402061702,-0.1378923742566258,-0.07506187677383423,532.6191345416592,0.23920257568359377,0.015417938232421876,-9.89382568359375,532.6154115416612,0.003496798686683178,-0.003546718042343855,-0.0023259795270860195,532.6191345416592
2025-10-03 16:13:42.928419,0.35922924846410753,0.1245852077845484,-9.802628415226938,532.7383025416602,-0.13035523105412722,-0.11560390281490983,0.061036745309829714,532.7383025416602,0.2731819152832031,0.01047821044921875,-9.72572525024414,532.7345795416622,0.005046302452683449,-0.005979376379400492,0.0017315547447651625,532.7383025416602
2025-10-03 16:13:43.066121,0.3573288668319583,0.12155493395403028,-9.802736588716508,532.8674015416618,-0.2886217440292239,0.18800132218748333,0.06353935360908508,532.8674015416618,0.18426681518554688,0.3453318786621094,-9.751172332763673,532.8636785416602,-0.0012352364137768745,0.006958417594432831,-0.0007906798273324966,532.8674015416618
2025-10-03 16:13:43.190622,0.35743470143526795,0.1218337821867317,-9.802728402614594,532.9965015416601,-0.05581196576356888,0.04177598954178393,0.051406965851783754,532.9965015416601,0.30835876464843753,0.15462844848632815,-9.835147705078125,532.9927785416621,-0.0011635343544185162,-0.003372296690940857,-0.0014982623979449272,532.9965015416601
2025-10-03 16:13:43.315187,0.34001807525753974,0.12731263238936663,-9.803282133936882,533.1256005416617,-0.09078628219664098,-0.19167874574661256,-0.5539827525615693,533.1256005416617,0.2591111755371094,-0.09864486694335937,-10.097102966308594,533.1218775416601,0.0076742214150726795,-0.039766427129507065,-0.0781857818365097,533.1256005416617
2025-10-03 16:13:43.435973,0.3469342715665698,0.12591858308762313,-9.803056431412697,533.2447685416591,-0.050700220204889776,0.40637454427778724,0.20216982007026674,533.2447685416591,0.1215472412109375,0.4854405212402344,-9.670041046142579,533.2410455416612,0.015543883666396141,0.03252006322145462,0.00790530163794756,533.2447685416591
