timestamp,gravity_x,gravity_y,gravity_z,gravity_time,lin_acc_x,lin_acc_y,lin_acc_z,lin_acc_time,acc_x,acc_y,acc_z,acc_time,gyro_x,gyro_y,gyro_z,gyro_time
2025-10-06 13:39:32.277893,,,,,,,,,,,,,,,,
2025-10-06 13:39:33.377655,,,,,,,,,,,,,,,,
2025-10-06 13:39:34.507256,0.08072793837636709,0.028937616732437166,9.809625193476677,0.17554566665785387,-0.0016922938451170923,-0.0004967597988434137,0.01564305603504181,0.17554566665785387,0.07948471069335938,0.026195526123046875,9.817035369873047,0.1743046666670125,-0.0020405917894095182,-0.0012279273942112923,-0.0014398619532585144,0.17554566665785387
2025-10-06 13:39:34.626436,0.08213044786825777,0.030702518834732476,9.809608236551286,0.2946866666607093,-0.001148849967867136,-0.004956058873794973,0.009223397970199585,0.2946866666607093,0.08307723999023438,0.02844085693359375,9.828112335205079,0.29344566666986793,-0.00026540830731391907,-0.0001231795467901975,0.0011785381939262152,0.2946866666607093
2025-10-06 13:39:34.749060,0.0816232567280531,0.030348319178447127,9.809613499045373,0.41382766666356474,0.0005558509379625321,-0.004751547938212752,0.003529964089393616,0.41382766666356474,0.07798782348632813,0.027093658447265627,9.817035369873047,0.41258666667272337,0.0011465754359960556,0.000855590682476759,-0.0011587613262236118,0.41382766666356474
2025-10-06 13:39:34.872735,0.08123490110971034,0.02919678771402687,9.80961993098259,0.5329676666588057,0.0036385943926870823,-0.0012049992266111077,0.01819244205951691,0.5329676666588057,0.08337661743164063,0.03263214111328125,9.81523910522461,0.5317266666679643,-5.4037198424339294e-05,0.0008676294237375259,0.0014352381695061922,0.5329676666588057
2025-10-06 13:39:35.000037,0.08103541055694223,0.02892803963273764,9.809622854590417,0.6620376666542143,-0.0025985209085047246,0.00026126090437173844,0.02717142641544342,0.6620376666542143,0.07753875732421875,0.03188369750976563,9.84397933959961,0.6607966666633729,0.0010858792811632156,-0.000557541090529412,-0.0013794279657304287,0.6620376666542143
2025-10-06 13:39:35.122112,0.08137259390205145,0.029317279185634107,9.80961876153946,0.7911066666711122,0.004548731781542302,-0.0019242432969622315,0.029720227718353275,0.7911066666711122,0.07948471069335938,0.028740234375,9.836195526123047,0.7898656666802708,-0.0016237697564065456,0.0008230337407439947,-0.0019858907908201218,0.7911066666711122
2025-10-06 13:39:35.244196,0.08168062339536845,0.029575787787325683,9.809615253210069,0.9102476666739676,-0.011177235944196583,0.0027569758845493197,0.02777778267860413,0.9102476666739676,0.07993377685546875,0.0305364990234375,9.824669494628907,0.9090066666540224,-0.00046866433694958687,-0.0015879897400736809,0.0025309803895652294,0.9102476666739676
2025-10-06 13:39:35.394996,0.08201523031108082,0.030047349741216752,9.809611160159111,1.0591736666683573,0.0016607645619660617,0.005279188344720752,0.019249618649482728,1.0591736666683573,0.08187973022460938,0.03263214111328125,9.819430389404298,1.057932666677516,-0.0010034993756562471,-6.75165792927146e-05,-0.00046197278425097466,1.0591736666683573
2025-10-06 13:39:35.524504,0.08135266768746079,0.02960004002787173,9.809618176817894,1.1882426666561514,-0.005759863732382655,0.002732723644003272,0.0361574274301529,1.1882426666561514,0.08113128662109376,0.03382965087890625,9.839488677978515,1.18700166666531,-0.0004209587350487709,-8.584739407524467e-05,-0.00024020113050937653,1.1882426666561514
2025-10-06 13:39:35.657627,0.08198748344555498,0.02930141632910818,9.809613499045373,1.3272405416646507,-0.005945613328367472,-0.0005611796700395644,0.01954665720462799,1.3272405416646507,0.07873626708984376,0.030835876464843752,9.833351440429688,1.3259995416738093,-0.0030629911925643682,0.000322803040035069,0.0002872394397854805,1.3272405416646507
2025-10-06 13:39:35.786172,0.0822227973304689,0.029295580533798785,9.809611744880677,1.4563105416600592,0.002501018587499857,0.002139050813857466,0.020895609855651857,1.4563105416600592,0.08696914672851563,0.031284942626953124,9.83724334716797,1.4550695416692179,-0.00028404686599969864,0.0008873898768797517,-0.0008665649220347404,1.4563105416600592
2025-10-06 13:39:35.915914,0.0820643103774637,0.02958584910957143,9.809612329602242,1.5853795416769572,-0.0012324011977761984,-0.004587830468080938,0.015655919909477234,1.5853795416769572,0.08337661743164063,0.022004241943359377,9.83290237426758,1.584138541657012,0.0006453334353864193,0.0023014526814222336,-0.0006081811152398586,1.5853795416769572
2025-10-06 13:39:36.043872,0.08242597893811762,0.029263877661433072,9.80960999071598,1.7144485416647512,-0.0012946923170238734,0.00456577321747318,0.03092650830745697,1.7144485416647512,0.08173004150390625,0.027692413330078127,9.838590545654297,1.7132075416739099,-0.0003179800696671009,-5.561363650485873e-06,-0.001993859652429819,1.7144485416647512
2025-10-06 13:39:36.168143,0.08227423455566168,0.02919024385744706,9.809611744880677,1.8335895416676067,-0.004286411069333553,0.006285982949193567,0.02104529857635498,1.8335895416676067,0.08352630615234376,0.03562591552734375,9.820178833007812,1.8323485416767653,0.0011904030106961727,0.0009297247161157429,0.0011793621815741062,1.8335895416676067
2025-10-06 13:39:36.289174,0.08185386543162168,0.029796415111050013,9.809613499045373,1.9527305416704621,-0.0013213336933404207,-0.0019543130602687597,0.025683894753456116,1.9527305416704621,0.08008346557617188,0.026943969726562503,9.827812957763673,1.9514895416796207,0.0009127543307840824,0.0034836900886148214,0.0005571392830461264,1.9527305416704621
2025-10-06 13:39:36.412881,0.0814366117771715,0.029490879820659757,9.809617592096329,2.0818005416658707,0.0017903169337660076,-0.002995976256206632,0.030320152044296268,2.0818005416658707,0.08173004150390625,0.02245330810546875,9.842632141113281,2.0805595416750293,-0.0017545886803418398,0.001039081602357328,-0.0015073181129992008,2.0818005416658707
2025-10-06 13:39:36.549458,0.08066868050023913,0.02909549612319097,9.809625193476677,2.200941541668726,-0.01136280281469226,-0.004097479765769094,0.03031255066394806,2.200941541668726,0.07394622802734375,0.026494903564453127,9.842781829833985,2.1997005416778848,0.003095125313848257,0.0012726833811029792,0.00044859410263597965,2.200941541668726
2025-10-06 13:39:36.687963,0.08068247627466918,0.030737791706342252,9.80961993098259,2.3597953749995213,-0.0010480768606066703,0.00159497196553275,0.02313275456428528,2.3597953749995213,0.08412506103515625,0.03263214111328125,9.829010467529297,2.35855437500868,-0.0008711814880371094,0.002489502541720867,-0.00030980678275227547,2.3597953749995213
2025-10-06 13:39:36.833189,0.08104634667746723,0.030909951094072314,9.809616422653198,2.4987933750089724,-0.001112569821998477,-0.0011218956741504372,0.026429414749145508,2.4987933750089724,0.07708969116210938,0.0293389892578125,9.835896148681641,2.497552374989027,0.0014437008649110794,0.000357962358975783,-0.00011892570182681084,2.4987933750089724
2025-10-06 13:39:36.984429,0.08092896382324398,0.030781949604861438,9.809617592096329,2.6377913749893196,0.0009507572650909425,0.002299255386460573,0.02493077337741852,2.6377913749893196,0.08232879638671875,0.03308120727539063,9.825417938232423,2.636550374998478,-0.0002446775324642658,0.00021905035828240216,0.0016424460336565971,2.6377913749893196
2025-10-06 13:39:37.128490,0.0815981319732964,0.03079874892951921,9.809612329602242,2.786717375012813,-0.001364977676421404,-0.0032560243201442064,0.013560277819633485,2.786717375012813,0.077838134765625,0.02784210205078125,9.82676513671875,2.785476374992868,-0.0011000600643455982,0.00028438426670618355,0.0005152779631316662,2.786717375012813
2025-10-06 13:39:37.272614,0.08173291029408575,0.030687660968396813,9.809611744880677,2.9257153749931604,-0.0038947755284607414,0.004489188396837563,0.017752146720886233,2.9257153749931604,0.08217910766601563,0.03502716064453125,9.835147705078125,2.924474375002319,0.0014110812917351723,0.0003386750759091228,0.0008408529683947563,2.9257153749931604
2025-10-06 13:39:37.390219,0.08187491540797055,0.030554145737551153,9.809610575437546,3.0547843750100583,0.0035973349772393704,0.00013203972252085806,0.006077011227607727,3.0547843750100583,0.08517288208007813,0.026794281005859375,9.821975097656251,3.053543374990113,-0.0004581604152917862,0.00132447958458215,-0.00048287538811564445,3.0547843750100583
2025-10-06 13:39:37.532204,0.08180570812895895,0.030341734208632263,9.809611744880677,3.1937823749904055,0.004564674580469728,-0.007289673504419625,0.016404363512992858,3.1937823749904055,0.0892144775390625,0.025896148681640627,9.825567626953125,3.192541374999564,0.0007743607275187969,-0.0008807030972093344,-0.00011702673509716988,3.1937823749904055
2025-10-06 13:39:37.658588,0.0823869944550097,0.030722059041727336,9.809605897665024,3.3228518750111107,0.0011393025610595942,-0.0001855623023584485,0.019403985142707827,3.3228518750111107,0.08307723999023438,0.030087432861328128,9.829010467529297,3.3315398750128224,0.0019886945374310017,0.00022917159367352724,-0.003773950971662998,3.332780875003664
2025-10-06 13:39:37.793116,0.08298394035547972,0.03093590724980459,9.809600050449372,3.461849874991458,-0.004397371122613549,-0.00548882701434195,0.014021038413047792,3.461849874991458,0.07828720092773438,0.026195526123046875,9.83110610961914,3.4606088750006165,-0.002453581430017948,0.0007405278738588095,-0.000947859138250351,3.461849874991458
2025-10-06 13:39:37.942041,0.08295571840368211,0.030833759133238346,9.809600635170938,3.6107758749858476,0.00027120117098093036,-0.00329103680793196,0.02554648518562317,3.6107758749858476,0.07768844604492188,0.028889923095703127,9.835297393798829,3.6095348749950062,-0.0002495930530130863,-0.0008338786428794265,-0.0006011668592691422,3.6107758749858476
2025-10-06 13:39:38.063318,0.08280483283102513,0.030570682394318285,9.809602974057197,3.729916874988703,-0.00811016120016575,-0.0027285803435370326,0.02434722125530243,3.729916874988703,0.07798782348632813,0.03278182983398438,9.823771362304688,3.7286758749978617,0.0016894014552235603,0.001822587219066918,0.00038024340756237507,3.729916874988703
2025-10-06 13:39:38.201249,0.08312612819485367,0.030386958767194303,9.809600635170938,3.868914874998154,-0.006485503194853664,-0.006137386013288051,0.02270298421382904,3.868914874998154,0.07738906860351563,0.028291168212890627,9.837393035888672,3.8676738750073127,0.0008507589809596539,0.002200352493673563,0.002235799329355359,3.868914874998154
2025-10-06 13:39:38.333268,0.08319557301700116,0.03026497808285058,9.809600635170938,3.997983874985948,-0.008500901386141778,0.004462805120274425,0.022553295493125916,3.997983874985948,0.07738906860351563,0.03592529296875,9.835297393798829,3.996742874995107,0.0006240522488951683,-0.0005834426265209913,-0.0012037470005452633,3.997983874985948
2025-10-06 13:39:38.459670,0.08312617387622595,0.029274336411617696,9.809604143500328,4.127053875010461,0.002645463086664677,0.0011124738911166788,0.020603833794593813,4.127053875010461,0.08547225952148438,0.027093658447265627,9.823322296142578,4.125812874990515,0.0010535153560340405,0.00012503069592639804,-0.0015483219176530838,4.127053875010461
2025-10-06 13:39:38.580495,0.08274840719997884,0.02945538996253163,9.809607067108155,4.246194875013316,0.003771673366427422,-0.0005654668668285013,0.016559314727783204,4.246194875013316,0.087418212890625,0.03158432006835938,9.821975097656251,4.244953874993371,-5.5602286010980606e-05,-0.0015070675872266293,0.0018821416888386011,4.246194875013316
2025-10-06 13:39:38.716467,0.08282279474660754,0.029442466702312233,9.809605897665024,4.385192249988904,-0.003637470630928874,-0.0011513007734902203,0.017607720494270326,4.385192249988904,0.08187973022460938,0.028889923095703127,9.825417938232423,4.383951249998063,-0.0005860989913344383,-0.00017574505181983113,-0.0024951095692813396,4.385192249988904
2025-10-06 13:39:38.853977,0.0830356973502785,0.02955833978718147,9.809604143500328,4.524190249998355,0.009471932044252753,-0.002464681339915842,0.01581379473209381,4.524190249998355,0.08936416625976563,0.028141479492187503,9.819131011962892,4.522949250007514,0.0013602208346128464,0.0014719231985509396,-0.0015663430094718933,4.524190249998355
2025-10-06 13:39:38.996511,0.08228179025463761,0.02946383873233572,9.809610575437546,4.663188250007806,0.0054358000773936516,-0.0010229795146733524,0.014310475587844849,4.663188250007806,0.08906478881835939,0.030985565185546876,9.832153930664063,4.661947249987861,-0.0009849965572357178,0.0011964574223384261,0.00020608585327863693,4.663188250007806
2025-10-06 13:39:39.119870,0.08222477990202606,0.028716502902098002,9.809613499045373,4.7922572499956,0.0010021488089114428,0.004514395378064365,0.01505599558353424,4.7922572499956,0.08352630615234376,0.03547622680664063,9.833501129150392,4.791016250004759,-0.0025101748760789633,0.001106305280700326,-0.0010938090272247791,4.7922572499956
2025-10-06 13:39:39.274674,0.0821803045179695,0.028830555584281683,9.809613499045373,4.9312552500050515,0.005387597093358636,0.003053141925483942,0.030922999978065493,4.9312552500050515,0.08098159790039063,0.028291168212890627,9.83439926147461,4.930014249985106,0.001706101931631565,0.0011450659949332476,-0.00011845631524920464,4.9312552500050515
2025-10-06 13:39:39.411385,0.08219213599339129,0.028391486790496856,9.809614668488503,5.070253249985399,-0.012437192145735026,0.0024443896743468942,0.006672257781028748,5.070253249985399,0.06975494384765625,0.028141479492187503,9.82392105102539,5.069012249994557,0.0007204189896583557,-0.0013757327105849981,-0.0016095377504825592,5.070253249985399
2025-10-06 13:39:39.527430,0.08203510170802475,0.028094270077999684,9.809617007374763,5.199322250002297,0.003736535254865885,0.0013944079005159438,0.021189724802970888,5.199322250002297,0.08322692871093751,0.03397933959960937,9.828711090087891,5.198081250011455,0.0013616350479424,0.002408125903457403,0.0014140033163130283,5.199322250002297
2025-10-06 13:39:39.655711,0.08229914917610587,0.028162899487651886,9.809614083766938,5.318462666677078,0.003472478650510311,-0.001967375648673624,0.017150468230247497,5.318462666677078,0.082628173828125,0.023950195312500002,9.83110610961914,5.317221666657133,5.6778546422719955e-05,-0.0003391467034816742,0.001230254303663969,5.318462666677078
2025-10-06 13:39:39.776388,0.0824653562810272,0.02804095078026876,9.809613499045373,5.447532666672487,-0.001483758380636573,-0.0033423118642531336,0.018798213601112366,5.447532666672487,0.08232879638671875,0.02784210205078125,9.833650817871094,5.446291666652542,-0.0012890056241303682,-0.0009551381226629019,-0.000735169742256403,5.447532666672487
2025-10-06 13:39:39.897392,0.08258778235875071,0.02849705872591585,9.809611160159111,5.566673666675342,-0.011485640024766326,-0.0009543364006094635,0.012064560055732728,5.566673666675342,0.07559280395507813,0.025596771240234375,9.831255798339845,5.565432666655397,-0.0028275263030081987,-0.001433915225788951,0.00017672590911388397,5.566673666675342
2025-10-06 13:39:40.027997,0.08213399274274708,0.029196143606677653,9.809612914323807,5.695742666663136,0.013068033624440433,-0.0018031077180057766,0.016852844953536988,5.695742666663136,0.09280700683593751,0.02784210205078125,9.821076965332031,5.694501666672295,-0.000503795687109232,0.00020104926079511642,-0.0011955620720982552,5.695742666663136
2025-10-06 13:39:40.158377,0.08216533930040897,0.02932135396404192,9.809612329602242,5.824812666658545,0.0027081653382629157,-0.0010301857511512936,0.01370996654033661,5.814883666665992,0.08382568359375,0.026794281005859375,9.828411712646485,5.8235716666677035,-0.0010386654175817966,0.0006654609460383654,-0.0007786559872329235,5.824812666658545
2025-10-06 13:39:40.281148,0.08215355350635946,0.02953400532016531,9.809611744880677,5.9439536666614,-0.005512928506359458,0.0010024937032721937,0.004429850578308105,5.9439536666614,0.07529342651367188,0.02844085693359375,9.820927276611329,5.942712666670559,-0.0017693748231977224,-0.001003671670332551,-0.0009807650931179523,5.9439536666614
2025-10-06 13:39:40.399608,0.0820529722608626,0.029022339689545335,9.809614083766938,6.073022666678298,-0.01259740585461259,-0.0011802353546954691,0.027629263401031494,6.073022666678298,0.07200027465820313,0.028740234375,9.833351440429688,6.071781666658353,0.0014270897954702377,0.0008254447020590305,0.0011109556071460247,6.073022666678298
2025-10-06 13:39:40.524002,0.08243940926156938,0.029125456251204017,9.809610575437546,6.19216366665205,0.0021347179356962444,-0.005774015821516514,0.03182405591011048,6.19216366665205,0.08382568359375,0.02424957275390625,9.835596771240235,6.1909226666612085,0.0018026800826191902,-0.0006032349192537367,-0.0008770767599344254,6.19216366665205
2025-10-06 13:39:40.671767,0.08203312827274203,0.02903047782601789,9.809614083766938,6.3212327916699,0.005385084617882967,0.0024041535216383636,0.01849825143814087,6.3212327916699,0.09235794067382813,0.03397933959960937,9.82960922241211,6.319991791679058,0.0003963927738368511,0.0005959711270406842,4.4638291001319885e-05,6.3212327916699
2025-10-06 13:39:40.799311,0.0824776719789952,0.029233074712101372,9.80960999071598,6.470159791671904,0.0035933424253016713,-0.0010915952199138702,0.026286157965660098,6.470159791671904,0.08472381591796875,0.025297393798828127,9.826316070556642,6.468918791651959,0.0013338997960090637,0.0006473490502685308,0.002226113574579358,6.470159791671904
2025-10-06 13:39:40.936524,0.08249830168671907,0.029772701910696926,9.80960765182972,6.599228791659698,0.0019261276535689831,-0.0029784231889061633,0.02045005202293396,6.599228791659698,0.08053253173828126,0.028590545654296876,9.833800506591798,6.5979877916688565,0.0003632563166320324,0.0021498785354197025,0.001095995306968689,6.599228791659698
2025-10-06 13:39:41.059284,0.08240303775295615,0.029672926941420884,9.809608821272851,6.728297791676596,0.0018717028666287662,-0.0001842512469738722,0.004132812023162842,6.728297791676596,0.08337661743164063,0.028740234375,9.825867004394532,6.727056791656651,0.0006167646497488022,-0.0010303463786840439,-0.00040226709097623825,6.728297791676596
2025-10-06 13:39:41.196780,0.08242663674987853,0.029233442447148265,9.80960999071598,6.867295791656943,-9.784949943423272e-05,-0.0003435193514451385,0.011765767335891724,6.867295791656943,0.08083190917968751,0.022902374267578126,9.82287322998047,6.866054791666102,0.0015741847455501556,-0.0008427958819083869,-0.00014656037092208862,6.867295791656943
2025-10-06 13:39:41.314193,0.082664700653404,0.029740405180491508,9.80960648238659,6.9864367916597985,-0.005125952465459704,-0.0024970602965913714,0.016709003448486328,6.9864367916597985,0.082628173828125,0.031284942626953124,9.826914825439454,6.985195791668957,0.0020148297771811485,0.0006447027553804219,-0.0001434069126844406,6.9864367916597985
2025-10-06 13:39:41.441307,0.0825708802510053,0.03028476040111855,9.809605897665024,7.105577791662654,-0.003385546999052167,0.0024970694328658284,0.021649900674819946,7.105577791662654,0.0796343994140625,0.02784210205078125,9.825417938232423,7.1043367916718125,0.0006869989447295666,0.00040098984027281404,-0.0005004201084375381,7.105577791662654
2025-10-06 13:39:41.567464,0.0831977931316942,0.0301798851066269,9.809600635170938,7.2346477916580625,-0.00012055314145982267,-0.002487471776548773,0.024050182700157168,7.2346477916580625,0.08008346557617188,0.030835876464843752,9.827663269042969,7.233406791667221,-0.0006998819299042225,-0.0017972900532186031,-0.0012651407159864902,7.2346477916580625
2025-10-06 13:39:41.705993,0.08404220416210592,0.030270050999242813,9.80959303379059,7.363717041676864,-0.0075512770190835,0.007301815613172949,0.02480564296245575,7.363717041676864,0.076640625,0.03697311401367188,9.828262023925781,7.362476041656919,-0.0002475706860423088,-0.0006004296010360122,-0.0003437204286456108,7.363717041676864
2025-10-06 13:39:41.836372,0.08436564655043186,0.030281555852852762,9.809590694904328,7.502715041657211,-0.007425644109025598,-0.0006431891536340118,0.009839694499969484,7.502715041657211,0.08038284301757813,0.026345214843750003,9.828262023925781,7.50147404166637,-0.0020264373160898685,4.320073639973998e-05,0.000707410741597414,7.502715041657211
2025-10-06 13:39:41.966245,0.08463626299984754,0.029634627678897234,9.809590110182763,7.63178504165262,-0.005450929747894406,3.739020321518183e-06,0.019270668625831607,7.63178504165262,0.08008346557617188,0.028590545654296876,9.819430389404298,7.6305440416617785,-0.0020136088132858276,0.0013264650478959084,-0.00011350680142641068,7.63178504165262
2025-10-06 13:39:42.090905,0.08481678664684296,0.02977777939522639,9.809588356018066,7.760854041669518,-0.007128340601921082,-0.0011872337409295141,0.019122734069824218,7.760854041669518,0.07828720092773438,0.023351440429687502,9.82526824951172,7.759613041678676,-0.0015011033974587917,-0.0014391520526260138,-0.0011869147419929504,7.760854041669518
2025-10-06 13:39:42.218530,0.08450361343100668,0.030302592124789956,9.809588940739632,7.889923041657312,-0.0044201569911092526,0.0012817256595008075,0.014181836843490602,7.889923041657312,0.08158035278320312,0.028141479492187503,9.824519805908203,7.8886820416664705,-0.0014256311114877462,0.00025345172616653144,0.0007530883885920048,7.889923041657312
2025-10-06 13:39:42.352902,0.08442335125990212,0.030542823609430343,9.809588940739632,8.01899304165272,-0.007782735396176577,-0.0056944982567802074,0.005649579763412476,8.01899304165272,0.08187973022460938,0.029189300537109376,9.82242416381836,8.017752041661879,0.0013882662169635296,0.0009964677738025784,0.0022286155726760626,8.01899304165272
2025-10-06 13:39:42.478561,0.08430555727332831,0.030941135482862592,9.809588940739632,8.148062041669618,0.0019151458516716959,0.0018406943511217833,0.021217791438102724,8.148062041669618,0.08786727905273438,0.03158432006835938,9.833351440429688,8.146821041678777,0.0013691051863133907,0.0003334571956656873,0.003395920619368553,8.148062041669618
2025-10-06 13:39:42.620308,0.08389745816588402,0.03137373122619465,9.809591279625893,8.277132041665027,-0.006209012120962143,-0.0006875457661226392,0.019718565344810486,8.277132041665027,0.0844244384765625,0.026794281005859375,9.82676513671875,8.285819041659124,0.0011939508840441704,0.0029043699614703655,-0.002123261336237192,8.277132041665027
2025-10-06 13:39:42.761085,0.08404059617780149,0.03182970212772489,9.809588356018066,8.42605762500898,-0.0023105546738952398,-0.003239156473428011,0.01612895965576172,8.42605762500898,0.08038284301757813,0.030985565185546876,9.821076965332031,8.424816624989035,-0.0017370397690683603,-0.0008919066749513149,-0.001142396591603756,8.42605762500898
2025-10-06 13:39:42.892517,0.08396216126158834,0.031206407211720945,9.809591279625893,8.555127625004388,-0.00627371521666646,-0.007106525462586433,0.01447946012020111,8.555127625004388,0.07679031372070313,0.022752685546875002,9.829758911132814,8.553886625013547,-8.46991315484047e-06,0.001880986732430756,0.0026459863875061274,8.555127625004388
2025-10-06 13:39:43.036369,0.08438046558760107,0.03220855602063239,9.80958426296711,8.704053624998778,-0.006692019542679191,-0.006462096059694887,0.02855721652507782,8.704053624998778,0.0748443603515625,0.024399261474609375,9.84008743286133,8.702812625007937,0.0006689811125397682,-0.0017834990285336971,0.00019608763977885246,8.704053624998778
2025-10-06 13:39:43.162809,0.0847056712768972,0.03163356001954526,9.80958309352398,8.823194625001634,-0.0044725261162966495,0.00010044648544862866,0.023618073463439943,8.823194625001634,0.08337661743164063,0.03158432006835938,9.83005828857422,8.821953625010792,-0.0007002260535955429,0.0007215699879452586,0.00039778463542461395,8.823194625001634
2025-10-06 13:39:43.279090,0.08410316138528288,0.032165750290732834,9.809586601853372,8.952264624997042,-0.0016246854141354562,-0.0038745843619108203,0.004753786325454712,8.952264624997042,0.077838134765625,0.030237121582031252,9.820627899169923,8.9510236250062,-0.0003648637793958187,0.00011108280159533024,0.001589612802490592,8.952264624997042
2025-10-06 13:39:43.433170,0.08439512017183007,0.0318504688795656,9.809585432410241,9.091261624998879,-0.006706674126908184,0.00033260835567489267,0.024813829064369203,9.091261624998879,0.07469467163085938,0.029189300537109376,9.834249572753906,9.090020625008037,-0.0011736589949578047,-0.0021479767747223377,-0.001265993807464838,9.091261624998879
2025-10-06 13:39:43.573800,0.0842613011598587,0.031414296284783635,9.809587771296501,9.23025962500833,-0.007920053601264954,-0.009260363336652517,0.013584836125373841,9.23025962500833,0.07978408813476563,0.025746459960937502,9.819131011962892,9.229018624988385,0.001210593618452549,0.0011634600814431906,0.002275333274155855,9.23025962500833
2025-10-06 13:39:43.712739,0.08386544466018678,0.031022160532884303,9.809592449069024,9.369257499987725,-0.0016863369941711426,-0.00258130359929055,0.020465839505195618,9.369257499987725,0.07888595581054687,0.02844085693359375,9.828112335205079,9.368016499996884,-0.00031451229006052017,0.0017761713825166225,-0.00042825890704989433,9.369257499987725
2025-10-06 13:39:43.849354,0.08393259627744556,0.031190439288038763,9.809591279625893,9.508255499997176,0.0006415309198200703,-0.005443977043032646,0.02106576383113861,9.508255499997176,0.08711883544921875,0.025147705078125002,9.829309844970703,9.507014500006335,-0.0001587485894560814,0.0006535185966640711,0.0010324872564524412,9.508255499997176
2025-10-06 13:39:43.966330,0.08377629289403558,0.03087195104453713,9.809593618512155,9.637325499992585,-0.0002499867416918278,0.000562680303119123,0.02839817225933075,9.637325499992585,0.0844244384765625,0.027991790771484375,9.831854553222657,9.636084500001743,0.0016766153275966644,0.00037819339195266366,0.0017319878097623587,9.637325499992585
2025-10-06 13:39:44.123524,0.08369322588667275,0.030912390479352327,9.80959420323372,9.786251499986975,0.0007312125898897648,-0.0075609500496648255,0.023308171033859255,9.786251499986975,0.08457412719726563,0.02125579833984375,9.828561401367187,9.785010499996133,0.0017431164160370827,-0.0037869084626436234,0.0016611809842288494,9.786251499986975
2025-10-06 13:39:44.254555,0.08383436305448413,0.03129056371981278,9.809591864347459,9.925249499996426,-0.002254010271281004,-0.0024006406241096558,0.009539147615432739,9.925249499996426,0.07918533325195314,0.02664459228515625,9.816586303710938,9.924008500005584,0.0018197097815573215,-0.0019263301510363817,0.000919214216992259,9.925249499996426
2025-10-06 13:39:44.392226,0.08393375658430159,0.031102315352763983,9.809591864347459,10.054319499991834,0.004232899909839034,-0.0047571005090139805,0.025256463289260865,10.054319499991834,0.08217910766601563,0.025896148681640627,9.824669494628907,10.053078500000993,-0.0007005590014159679,-0.0009636507602408528,0.0015624831430613995,10.054319499991834
2025-10-06 13:39:44.539044,0.08354244081303477,0.03179040929535404,9.80959303379059,10.193317500001285,0.0017801299877464771,-5.640050629153848e-05,0.014926772117614747,10.193317500001285,0.08577163696289063,0.032183074951171876,9.82002914428711,10.192076500010444,-0.001652460778132081,0.0007466672686859965,-0.0013867332600057125,10.193317500001285
2025-10-06 13:39:44.678991,0.08356580226682127,0.03220511849736795,9.809591279625893,10.342243999999482,-0.0054282900597900155,-0.0009201758704148233,0.017473234534263613,10.342243999999482,0.07843688964843751,0.030985565185546876,9.842332763671875,10.34100300000864,-0.001107528107240796,0.0002075271331705153,0.0011723691131919622,10.342243999999482
2025-10-06 13:39:44.824252,0.08382597595453263,0.03159133672714234,9.809590694904328,10.491169999993872,0.00449036012403667,-0.0022523497533984485,0.016874479651451113,10.491169999993872,0.08637039184570312,0.027991790771484375,9.821526031494141,10.48992900000303,0.00026104366406798363,-0.00014388412819243968,-0.00055362144485116,10.491169999993872
2025-10-06 13:39:44.946924,0.08345656896941364,0.03201751652173698,9.80959303379059,10.610312000004342,0.0047100875247269875,-0.0007325738947838546,0.020016188621521,10.610312000004342,0.0868194580078125,0.032931518554687504,9.823022918701172,10.6090710000135,-0.000373846385627985,0.001229478744789958,0.00070926733314991,10.610312000004342
2025-10-06 13:39:45.074422,0.0833714006189257,0.03158626609481871,9.809594787955284,10.739380999992136,-0.0040363695099949835,-0.006139183575287461,0.01567346155643463,10.739380999992136,0.0820294189453125,0.025147705078125002,9.827962646484375,10.738140000001295,-0.001045463839545846,-0.0019980166107416153,0.001246888656169176,10.739380999992136
2025-10-06 13:39:45.207653,0.08376774134114386,0.03201931408373639,9.809590110182763,10.868450999987544,-0.0009898787923157215,-0.008817562374752015,0.02900043547153473,10.868450999987544,0.08487350463867188,0.023201751708984378,9.83963836669922,10.867209999996703,0.0011320053599774837,0.0009841009741649032,-0.0016644885763525963,10.868450999987544
2025-10-06 13:39:45.356980,0.08460129847750068,0.03176426813006401,9.809583678245545,11.017377000011038,0.002367848251014948,-0.01140660211443901,0.01763052463531494,11.017377000011038,0.08906478881835939,0.023800506591796878,9.830657043457032,11.016135999991093,0.0006244289688766003,0.0009147855453193188,0.0009579814504832029,11.017377000011038
2025-10-06 13:39:45.475379,0.08470000678673387,0.03154954283963889,9.809583678245545,11.146447000006447,-0.012699732128530742,-0.006850903923623264,0.015534882545471192,11.146447000006447,0.07379653930664062,0.027692413330078127,9.823022918701172,11.145205999986501,-0.00028864527121186256,-0.002347109140828252,-0.0006745257414877415,11.146447000006447
2025-10-06 13:39:45.626910,0.08478297329507768,0.031286518634296955,9.809583678245545,11.285444999986794,0.004581192964687944,-0.00030095344875007867,0.018678345680236817,11.285444999986794,0.08861572265625,0.029488677978515627,9.823471984863282,11.284203999995952,-0.00039469683542847633,-0.0007431517587974668,-0.0016795769333839417,11.285444999986794
2025-10-06 13:39:45.763248,0.08421944788657129,0.03144189925398678,9.809588356018066,11.434371000010287,-0.007429134165868163,0.0005914869764819742,0.019272422790527346,11.434371000010287,0.07514373779296875,0.028141479492187503,9.829010467529297,11.433129999990342,-0.0012704236432909966,-0.00028301725978963077,-0.0009916177950799465,11.434371000010287
2025-10-06 13:39:45.901612,0.08376700130291284,0.031824250055942686,9.809590694904328,11.563441000005696,0.0020046356599777936,-0.0027846405236050488,0.014629733562469483,11.563441000005696,0.08592132568359376,0.029937744140625,9.819729766845704,11.56219999998575,-0.0005792640149593353,0.0029306625947356224,0.001183849759399891,11.563441000005696
2025-10-06 13:39:46.027559,0.08349845878779888,0.03146597562124953,9.80959420323372,11.69250999999349,0.0031713104993104937,-0.003474184849765152,0.03154105067253113,11.69250999999349,0.087418212890625,0.0293389892578125,9.832303619384765,11.691269000002649,-0.00020452635362744331,0.0010650851763784885,0.002792694140225649,11.69250999999349
2025-10-06 13:39:46.156853,0.08318410699255765,0.03124243154190481,9.80959771156311,11.821579999988899,0.0024378412496298555,-0.004897216698154808,0.020011510848999024,11.821579999988899,0.08307723999023438,0.02484832763671875,9.82960922241211,11.820338999998057,-0.0007987581193447113,-0.0020153203513473272,0.0024048753548413515,11.821579999988899
2025-10-06 13:39:46.284032,0.08381700413301588,0.03123124417383224,9.809592449069024,11.950650000013411,-0.0029850949533283713,-0.002491009798832238,0.013729847073554994,11.950650000013411,0.082628173828125,0.030985565185546876,9.822723541259766,11.949408999993466,-0.0018352936021983624,-0.001567311119288206,0.002562127076089382,11.950650000013411
2025-10-06 13:39:46.413397,0.08410499777644873,0.0313139777071774,9.809589525461197,12.079719000001205,-0.012553789280354978,-0.0007774786837399006,0.023013471364974978,12.079719000001205,0.0688568115234375,0.03158432006835938,9.834848327636719,12.078478000010364,0.0013318746350705624,-0.0010192114859819412,0.0024632085114717484,12.079719000001205
2025-10-06 13:39:46.673324,0.08447847040370107,0.030801229428034278,9.809587771296501,12.318001999985427,-0.011280685979872942,-0.002809438656549901,0.028104642033576967,12.318001999985427,0.07319778442382813,0.02963836669921875,9.837393035888672,12.316760999994585,0.0002609333023428917,0.000304194021737203,0.0009972306434065104,12.318001999985427
2025-10-06 13:39:46.890515,0.08461653778329492,0.02982135028811172,9.809589525461197,12.546356000006199,-0.0009405520465224982,0.0014635900547727942,0.016875649094581606,12.546356000006199,0.080233154296875,0.0293389892578125,9.824968872070313,12.545114999986254,0.001251311507076025,0.00020705803763121367,0.00040144985541701317,12.546356000006199
2025-10-06 13:39:47.082703,0.08491891192272306,0.029631075952202084,9.809587771296501,12.744923999998719,-0.004386380184441805,-0.0017889739014208318,0.01029168426990509,12.744923999998719,0.08187973022460938,0.027991790771484375,9.82526824951172,12.743683000007877,-0.00011728517711162567,-0.00018592114793136716,0.0005557609256356955,12.744923999998719
2025-10-06 13:39:47.240179,0.08444671271368862,0.030031619360670447,9.809590694904328,12.903778999985661,-0.012596126776188613,0.005594296166673303,0.011486270427703858,12.903778999985661,0.07694000244140625,0.03577560424804688,9.821975097656251,12.90253799999482,-0.0006419387646019459,-0.0016505776438862085,0.002323802327737212,12.903778999985661
2025-10-06 13:39:47.364319,0.0843733027484268,0.03000972884707153,9.809591279625893,13.032849000010174,0.00050020189024508,-0.0009701170306652785,0.015826658606529237,13.032849000010174,0.08053253173828126,0.026943969726562503,9.828860778808595,13.031607999990229,-0.00022490555420517921,0.0019183504628017545,0.002639350015670061,13.032849000010174
2025-10-06 13:39:47.506510,0.08370766120031477,0.029542502055410296,9.809598296284676,13.171846999990521,-0.0018279309757053854,0.0024908864591270687,0.015220887064933778,13.171846999990521,0.08008346557617188,0.030386810302734376,9.826166381835938,13.17060599999968,0.00046615535393357277,-0.00047261398867703974,0.0014802918303757906,13.171846999990521
2025-10-06 13:39:47.653549,0.08359695696271957,0.030159675667528064,9.80959771156311,13.320774249994429,-0.004112246269360185,-0.0030660172202624384,0.028394079208374026,13.320774249994429,0.07514373779296875,0.027991790771484375,9.827064514160156,13.319533250003587,0.0009434632956981659,-0.001422824920155108,0.00021883519366383553,13.320774249994429
2025-10-06 13:39:47.821845,0.08350738492794335,0.030310759954154495,9.80959771156311,13.489557249995414,-0.006866759927943349,0.0026207586005330087,0.010581121444702149,13.489557249995414,0.07529342651367188,0.031284942626953124,9.821226654052735,13.488316250004573,0.0008194120600819588,7.29659222997725e-05,0.0006008951459079981,13.489557249995414
2025-10-06 13:39:47.974349,0.08373286818154156,0.03039966732496396,9.80959537267685,13.628555250004865,-0.0030506568588316444,-0.0019588126754388215,0.01806731164455414,13.628555250004865,0.08412506103515625,0.032183074951171876,9.835297393798829,13.637243250006577,-0.0019567343406379223,-0.0001192613854072988,0.000384508166462183,13.628555250004865
2025-10-06 13:39:48.115259,0.08396363220177591,0.03031796390656382,9.809593618512155,13.77748225000687,-0.006873950175940991,-0.007116214481648058,0.014027470350265504,13.77748225000687,0.07918533325195314,0.026195526123046875,9.817334747314453,13.776241249986924,0.0013793529942631721,-0.0007800554158166051,-0.0013127569109201431,13.77748225000687
2025-10-06 13:39:48.244079,0.08358457731083035,0.030625500041060152,9.809595957398415,13.896623250009725,0.0036839377228170636,-0.000687758184503764,0.020461746454238892,13.896623250009725,0.08786727905273438,0.030386810302734376,9.828411712646485,13.89538224998978,0.0004249662160873413,0.0003259704099036753,-0.0006496366113424301,13.896623250009725
2025-10-06 13:39:48.420539,0.08361098114401103,0.03039284938015044,9.80959654211998,14.085264249995816,-0.004425647892057896,-0.006442654067650437,0.024952408075332642,14.085264249995816,0.07708969116210938,0.0197589111328125,9.823471984863282,14.084023250004975,0.0016584410332143307,-0.0015398929826915264,-0.00016634538769721985,14.085264249995816
2025-10-06 13:39:48.544124,0.08352371145039797,0.03069446064066142,9.80959654211998,14.214333250012714,0.00045166086405515674,-0.0016548488242551685,0.027646805047988894,14.214333250012714,0.08906478881835939,0.025896148681640627,9.829908599853516,14.21309224999277,0.0007561375387012959,-0.0002744851226452738,0.00048072589561343193,14.214333250012714
2025-10-06 13:39:48.728166,0.08411002272740006,0.03061028586002067,9.809591864347459,14.393044500000542,-0.0014818488992750646,-0.0030675612506456673,0.01522731900215149,14.393044500000542,0.07978408813476563,0.028291168212890627,9.838740234375,14.3918035000097,-0.0018052575178444386,0.0009283014223910868,-0.0010426482185721397,14.393044500000542
2025-10-06 13:39:48.848615,0.08441976984031499,0.030634474146645517,9.809588940739632,14.512186500011012,0.0010524896811693906,-0.003989879577420652,0.011338335871696473,14.512186500011012,0.08637039184570312,0.027692413330078127,9.821076965332031,14.510945499991067,0.003143641632050276,-0.00023694708943367004,0.0011599427089095116,14.512186500011012
2025-10-06 13:39:49.023410,0.08408006488345564,0.030018289536237718,9.809593618512155,14.641255499998806,0.0034878367278724912,0.0008175869286060334,0.016872140765190124,14.641255499998806,0.09011260986328125,0.029788055419921876,9.824968872070313,14.640014500007965,-0.0017932243645191193,0.002000326756387949,0.0012394087389111519,14.641255499998806
2025-10-06 13:39:49.160967,0.08353509524837137,0.030499526804778725,9.809597126841545,14.829896499984898,-0.005247894320636988,0.005126388722565025,0.011180461049079896,14.829896499984898,0.08113128662109376,0.037571868896484374,9.82571731567383,14.828655499994056,-0.0004572221077978611,-0.00027681191568262875,0.00031910743564367294,14.829896499984898
2025-10-06 13:39:49.336303,0.08305617174133659,0.030457783166784793,9.809601219892503,14.998680499993498,0.004511729869991541,0.003371867712121457,0.002644110918045044,14.998680499993498,0.08816665649414063,0.03113525390625,9.823621673583984,14.997439500002656,-0.0002738521434366703,-0.0010722571751102805,0.0014603992458432913,14.998680499993498
2025-10-06 13:39:49.456924,0.08278742822818458,0.030626797392033042,9.809602974057197,15.117821499996353,-0.0010573867242783309,-0.00787411184515804,0.02045531451702118,15.117821499996353,0.07694000244140625,0.02903961181640625,9.829459533691407,15.12650849999045,0.0015802527777850628,-0.0027279374189674854,0.0009165899828076363,15.117821499996353
2025-10-06 13:39:49.647109,0.08307546755298972,0.031198824103921653,9.809598881006242,15.316390499996487,0.0004508385993540287,-0.008745515998452903,0.009382442235946656,15.316390499996487,0.08577163696289063,0.022602996826171878,9.814790039062501,15.315149500005646,0.000891268253326416,0.00161786749958992,-0.0007989588193595409,15.316390499996487
2025-10-06 13:39:49.769125,0.08242420650087297,0.03139198778662831,9.809603558778763,15.435532250005053,-0.0069810912664979696,-0.002951130853034556,0.015215624570846558,15.435532250005053,0.07738906860351563,0.029937744140625,9.823172607421876,15.434291249985108,0.0018992526456713676,0.00014727379311807454,0.0007193270139396191,15.435532250005053
2025-10-06 13:39:49.946142,0.0818427739944309,0.03131556741893292,9.809608821272851,15.55467424998642,-0.0022083745803683995,-0.01050883524119854,0.015958805680274964,15.55467424998642,0.07394622802734375,0.022752685546875002,9.828112335205079,15.553433249995578,-0.00181287107989192,0.0002808594726957381,0.0002456638030707836,15.55467424998642
2025-10-06 13:39:50.064064,0.08165410079061985,0.03162383673945442,9.809609405994415,15.733386250009062,-0.002169390097260475,-0.0013867151574231684,0.008473784923553468,15.733386250009062,0.07933502197265625,0.027093658447265627,9.81763412475586,15.732145249989117,0.0031962296925485134,0.0009865972679108381,-0.0005130767822265625,15.733386250009062
2025-10-06 13:39:50.187038,0.08101719282567502,0.032195317558944225,9.809612329602242,15.852527250011917,-0.0003349815029650927,-0.007496680926997215,0.019547241926193237,15.852527250011917,0.0820294189453125,0.027093658447265627,9.837093658447266,15.851286249991972,4.725111648440361e-05,0.0020245001651346684,-0.002300557214766741,15.852527250011917
2025-10-06 13:39:50.311213,0.08078884991817177,0.03224000992951915,9.809614083766938,15.981597250007326,-0.0007053934782743454,-0.004846976324915886,0.02223988473415375,15.981597250007326,0.08173004150390625,0.02784210205078125,9.831704864501953,15.98035624998738,0.0021813479252159595,0.0003900740994140506,-0.000475272536277771,15.981597250007326
2025-10-06 13:39:50.435713,0.0797311525605619,0.032413669950328766,9.809622269868852,16.10073825001018,0.0018491910863667727,0.0063557064277119935,0.012501931786537171,16.10073825001018,0.07604187011718751,0.03143463134765625,9.814790039062501,16.099497249990236,0.0006481665186583996,0.001624187920242548,0.0003185812383890152,16.10073825001018
2025-10-06 13:39:50.571445,0.07956281670369209,0.032053337569814176,9.809625193476677,16.239737249998143,0.007705707466229797,-0.007055321212392301,0.02552251160144806,16.239737249998143,0.08652008056640625,0.027692413330078127,9.832602996826173,16.2384962500073,0.0009480011649429798,-0.0007041179342195392,0.00040195882320404053,16.239737249998143
2025-10-06 13:39:50.692447,0.07950705802068114,0.03222178077790886,9.809624608755112,16.35887762499624,-0.0001720451842993498,-0.004379681011196226,0.009056752324104309,16.35887762499624,0.077838134765625,0.02844085693359375,9.818981323242188,16.357636625005398,0.0028483550995588303,0.0012005007592961192,-0.0021018730476498604,16.35887762499624
2025-10-06 13:39:50.877351,0.07867079654708505,0.03291893790476024,9.809629286527635,16.547518625011435,0.003957377281039953,0.0019585340190678836,0.02057869076728821,16.547518625011435,0.08337661743164063,0.03323089599609375,9.828561401367187,16.54627762499149,0.001487798523157835,-0.0007907262770459056,-0.0010768030770123005,16.547518625011435
2025-10-06 13:39:51.020382,0.07812505032867194,0.03289317361079157,9.809633964300156,16.686516624991782,0.005550944544374943,-0.0056498241587542,0.020274635553359985,16.686516624991782,0.08457412719726563,0.02844085693359375,9.830657043457032,16.68527562500094,0.00043516792356967926,0.0005310826236382127,-0.0008544879965484142,16.686516624991782
2025-10-06 13:39:51.194957,0.07757905743084849,0.033520970426034184,9.809635718464852,16.855300625000382,0.002055332846939564,-0.009570777397602797,0.019224475622177124,16.855300625000382,0.07619155883789062,0.02365081787109375,9.836195526123047,16.86398762499448,0.0030823699198663235,0.0010061741340905428,0.00022376608103513718,16.86522862498532
2025-10-06 13:39:51.324402,0.07719416446052492,0.03376720672706142,9.809638057351114,16.994298625009833,0.0016917822137475014,-0.00397915359120816,0.01967178761959076,16.994298625009833,0.07903564453125,0.02724334716796875,9.827812957763673,16.993057624989888,-0.0001712888479232788,0.0025720850098878145,0.0016508635599166155,16.994298625009833
2025-10-06 13:39:51.498448,0.07690762348473072,0.033274782090447846,9.80964215040207,17.17301062500337,0.0013795774430036545,-0.002438905625604093,0.01353045701980591,17.17301062500337,0.07589218139648438,0.030686187744140628,9.83005828857422,17.17176962501253,-0.00017808284610509872,0.0009829152841120958,-0.0013427273370325565,17.17301062500337
2025-10-06 13:39:51.620044,0.07686926940456033,0.033183439902495594,9.809642735123635,17.282223624992184,0.0056092157028615475,0.0037896741111762824,0.012182673811912537,17.282223624992184,0.085023193359375,0.0335302734375,9.81523910522461,17.280982625001343,0.001945591066032648,-0.0008088748436421156,0.00047424668446183205,17.282223624992184
2025-10-06 13:39:51.799175,0.07682906979694963,0.03296098303981126,9.809643904566766,17.470865416660672,-0.0006375109590590001,-0.0013766629714518786,0.004996445775032043,17.470865416660672,0.07649093627929687,0.03278182983398438,9.818232879638673,17.46962441666983,0.0002987678162753582,-0.0006266891723498702,-0.0024135932326316833,17.470865416660672
2025-10-06 13:39:51.945887,0.07702697977423668,0.032671803964767605,9.8096433198452,17.609863416670123,0.004104306846857071,0.002654734121169895,0.024007498025894167,17.609863416670123,0.076640625,0.0305364990234375,9.83005828857422,17.60862241667928,0.0010469635017216206,0.0019595371559262276,0.0011015075724571943,17.609863416670123
2025-10-06 13:39:52.118869,0.07728652305901051,0.03290810228325427,9.809640396237373,17.778647416678723,0.0027969425171613695,-0.00880821825005114,0.010987502932548524,17.778647416678723,0.07738906860351563,0.025896148681640627,9.834698638916016,17.777406416658778,0.003219994716346264,0.000833096681162715,0.00015607522800564766,17.778647416678723
2025-10-06 13:39:52.246349,0.07693123161792756,0.03305206941207871,9.809642735123635,17.917646416666685,0.0179714173078537,0.0019750912324525416,0.02266088426113129,17.917646416666685,0.09071136474609376,0.034727783203125,9.834249572753906,17.916405416675843,-0.0008536232635378838,0.00135762058198452,-7.117772474884987e-05,17.917646416666685
2025-10-06 13:39:52.368288,0.07758283071219922,0.033389883160125464,9.809636303186418,18.03678741666954,-0.00019376210868358613,-0.005398092388641089,0.025212024450302125,18.03678741666954,0.08053253173828126,0.028740234375,9.83918930053711,18.0355464166787,-0.002488391939550638,-0.0013372075045481324,0.0011758136097341776,18.03678741666954
2025-10-06 13:39:52.507810,0.0780159266665578,0.03405107534257695,9.809630455970765,18.16585741666495,0.0053606816288083795,-0.006807730458676815,0.016535341143608093,18.16585741666495,0.07978408813476563,0.027692413330078127,9.830806732177734,18.164616416674107,0.0017024567350745201,0.0011695045977830887,8.172914385795593e-05,18.16585741666495
2025-10-06 13:39:52.646776,0.07787647057324648,0.03390247383853421,9.80963221013546,18.30485641665291,0.0017579288408160212,-0.0027672199322842064,0.012492576241493226,18.30485641665291,0.08128097534179687,0.03188369750976563,9.8243701171875,18.30361541666207,-0.00012233061715960503,-0.0006067535141482949,-0.0010589421726763248,18.30485641665291
2025-10-06 13:39:52.794609,0.07807936895638705,0.03350788728101179,9.80963221013546,18.45378325000638,0.012482307069003582,-0.006114851392339915,0.03195210993289948,18.45378325000638,0.08891510009765625,0.03203338623046875,9.842482452392579,18.452542249986436,0.00030167726799845695,-0.00027435156516730785,-0.0019753240048885345,18.45378325000638
2025-10-06 13:39:52.932618,0.07797622041776776,0.03325094783445821,9.809633964300156,18.58285325000179,0.013184210490435362,-0.005408845783676952,-0.00442400336265564,18.58285325000179,0.09280700683593751,0.030686187744140628,9.820178833007812,18.58161225001095,0.0012959670275449753,-0.0018862474244087934,8.675083518028259e-05,18.58285325000179
2025-10-06 13:39:53.072872,0.07780486045405269,0.032707501673139634,9.809636887907983,18.731780250003794,-0.004008321147412062,-0.003218821410555393,0.022816420197486878,18.731780250003794,0.076640625,0.03188369750976563,9.837842102050782,18.730539250012953,0.0016369521617889404,-0.000359858269803226,0.0012386089656502008,18.731780250003794
2025-10-06 13:39:53.226043,0.07764712267555297,0.03261782457120717,9.809638642072677,18.8807072500058,-0.00010836535133421421,-0.0037279014755040407,0.011588011980056764,18.8807072500058,0.0796343994140625,0.027991790771484375,9.818831634521485,18.879466249985853,0.0003605363890528679,0.00034288252936676145,0.0018142047338187695,18.8807072500058
2025-10-06 13:39:53.367648,0.07697338638827204,0.03239577884087339,9.809644489288331,19.029634250007803,0.007900118250399829,-0.00754745120415464,0.001852397918701172,19.029634250007803,0.08128097534179687,0.025896148681640627,9.832602996826173,19.028393249987857,-0.0012075223494321108,0.0021407287567853928,-0.000541705172508955,19.029634250007803
2025-10-06 13:39:53.501589,0.07734989225864411,0.03217091456986964,9.80964215040207,19.16863224998815,0.01156519870273769,-0.005226947127375752,0.021163997054100037,19.16863224998815,0.08592132568359376,0.026345214843750003,9.834998016357423,19.16739124999731,-0.0001939907670021057,-0.0026298752054572105,0.0013939798809587955,19.16863224998815
2025-10-06 13:39:53.657642,0.07818859311752022,0.031836922068614514,9.809636887907983,19.317559249990154,0.005337713034823537,-0.006389837265014649,0.02581019461154938,19.317559249990154,0.08307723999023438,0.026794281005859375,9.831255798339845,19.316318249999313,-0.001907805446535349,0.0008628802606835961,-0.0017526941373944283,19.317559249990154
2025-10-06 13:39:53.819551,0.0786066324915737,0.031935712604317816,9.809632794857025,19.476415250013815,0.004320909641683102,0.003989578080363572,0.017730512022972107,19.476415250013815,0.08113128662109376,0.03203338623046875,9.827663269042969,19.47517424999387,0.0018487051129341125,0.0018725875997915864,0.00023121247068047523,19.476415250013815
2025-10-06 13:39:53.955087,0.07840612781234085,0.03198683234397322,9.809634549021721,19.625342249986716,-0.0037114561814814806,-0.008485703193582595,0.03449447929859162,19.625342249986716,0.0796343994140625,0.0221539306640625,9.844877471923828,19.624101249995874,-0.0008119968697428703,0.0011402219533920288,-4.165340214967728e-06,19.625342249986716
2025-10-06 13:39:54.081217,0.07832581995986403,0.03207422309322283,9.809635133743287,19.74448324998957,-0.0007870626356452704,-0.010369358591269702,0.015932493209838867,19.74448324998957,0.07798782348632813,0.024548950195312502,9.829758911132814,19.74324224999873,-0.002698743948712945,-0.0036733432207256556,1.2018252164125443e-05,19.74448324998957
2025-10-06 13:39:54.215319,0.07823755441233517,0.03175086293136701,9.809636887907983,19.883482250006637,0.004689996857196093,0.00028252329910174014,0.009793501496315003,19.883482250006637,0.08831634521484376,0.02903961181640625,9.818681945800781,19.88224124998669,-0.0008199061267077923,-7.263169391080737e-05,0.0013827462680637836,19.883482250006637
2025-10-06 13:39:54.357283,0.07783632578328252,0.03138150162762031,9.809640980958939,20.022480249986984,0.010629708152264357,-0.005485352945979685,0.018171976804733276,20.022480249986984,0.08801696777343751,0.02365081787109375,9.828262023925781,20.021239249996142,-0.0004025944508612156,0.0009203418740071356,0.00013792840763926506,20.022480249986984
2025-10-06 13:39:54.501505,0.07755219678394497,0.0315404042811133,9.809642735123635,20.171407249988988,-0.0024084589909762143,-0.004297057113144547,0.030444697737693788,20.171407249988988,0.07140151977539062,0.030087432861328128,9.837093658447266,20.170166249998147,0.0003032921813428402,-0.00015383520803879946,-0.000206709373742342,20.171407249988988
2025-10-06 13:39:54.620540,0.07766921418718994,0.03170213917968795,9.809641565680504,20.290549249999458,-0.004022363601252437,-0.004907858173828572,0.012333531975746156,20.290549249999458,0.07080276489257813,0.027093658447265627,9.821975097656251,20.289308250008617,-0.0010673189535737038,-0.0011946950107812881,-0.0009686900302767754,20.290549249999458
2025-10-06 13:39:54.743574,0.07775481194257737,0.03126570620108396,9.80964215040207,20.40969075000612,0.0057714942097663886,-0.010159596581943334,0.01921862840652466,20.40969075000612,0.08322692871093751,0.022902374267578126,9.823771362304688,20.408449749986175,0.0007712626829743385,0.0008204060140997171,0.0035052793100476265,20.40969075000612
2025-10-06 13:39:54.873981,0.07764950724318624,0.031301972642540934,9.809642735123635,20.53876075000153,0.004080534260720014,-0.0009151623398065568,0.016972712874412536,20.53876075000153,0.08038284301757813,0.03442840576171875,9.829309844970703,20.537519750010688,0.0006262916140258312,0.00016189349116757512,0.002181822434067726,20.53876075000153
2025-10-06 13:39:55.001480,0.07759856337681413,0.03130936845671386,9.8096433198452,20.667830749996938,0.00038926010951399807,-0.0024194453610107305,0.019816213846206666,20.667830749996938,0.07319778442382813,0.031284942626953124,9.820627899169923,20.666589750006096,0.0008081016130745411,0.0016174379270523787,0.0002518105320632458,20.667830749996938
2025-10-06 13:39:55.133253,0.07766099154017866,0.03133164040977136,9.809642735123635,20.796900749992346,0.0028715401981025935,-0.000495763944927603,0.021014308333396913,20.796900749992346,0.08038284301757813,0.03682342529296875,9.837393035888672,20.795659750001505,-0.001235427102074027,0.00012703350512310863,-0.0010340064764022827,20.796900749992346
2025-10-06 13:39:55.257394,0.07846829102374614,0.03156763951526955,9.809635133743287,20.925970749987755,0.006854270640760661,-0.008216201369650662,0.009794670939445495,20.925970749987755,0.08038284301757813,0.025896148681640627,9.829010467529297,20.924729749996914,0.000920634251087904,-0.003838777309283614,0.0009618448093533516,20.925970749987755
2025-10-06 13:39:55.387012,0.07814983704127372,0.03164195625577122,9.809637472629548,21.055041749990778,0.001334864515811205,-0.0008060820749960841,0.026407780051231386,21.055041749990778,0.08217910766601563,0.030835876464843752,9.829010467529297,21.053800749999937,-3.5466160625219345e-05,0.0003996108425781131,0.0010714659001678228,21.055041749990778
2025-10-06 13:39:55.514707,0.07766039768233896,0.032081835893914105,9.809640396237373,21.184111749986187,0.009009371604770422,-0.0034912902396172286,0.012783767580986023,21.184111749986187,0.08951385498046875,0.032482452392578125,9.82960922241211,21.182870749995345,0.00027671270072460175,6.194089655764401e-05,4.132697358727455e-05,21.184111749986187
2025-10-06 13:39:55.637163,0.07739234852604568,0.03202827448491007,9.80964215040207,21.303253749996657,-0.00015297777950763704,0.003597638758365065,0.023559016585350038,21.303253749996657,0.07948471069335938,0.030686187744140628,9.826914825439454,21.302012750005815,0.0008474714122712612,-8.065439760684967e-05,-0.00023034680634737015,21.303253749996657
2025-10-06 13:39:55.760198,0.0776129895541817,0.03257433362072334,9.809638642072677,21.43232349999016,0.007859260831028224,0.005147221712395549,0.01802404224872589,21.43232349999016,0.08607101440429688,0.03442840576171875,9.819430389404298,21.43108249999932,-0.00044774264097213745,-0.0008438277291134,-0.0009226081892848015,21.43232349999016
2025-10-06 13:39:55.909500,0.0770557499025017,0.0330210403399542,9.809641565680504,21.571321499999613,0.002878017816692591,-0.009519913473632187,0.003800690174102783,21.571321499999613,0.08053253173828126,0.025596771240234375,9.828561401367187,21.57008050000877,0.0012240302748978138,0.0003578744363039732,-0.0008653583936393261,21.571321499999613
2025-10-06 13:39:56.037802,0.07721538802608847,0.03291437205160037,9.809640980958939,21.710320499987574,-0.0016225840710103513,-0.008515110576990993,0.015926645994186403,21.710320499987574,0.07454498291015625,0.02544708251953125,9.827064514160156,21.709079499996733,0.0012823031283915043,-0.0021126267965883017,0.001107807969674468,21.710320499987574
2025-10-06 13:39:56.173637,0.07740098230540753,0.032410273540299385,9.809640980958939,21.839390500012087,0.008819720819592477,-0.005017239935696125,0.025506724119186402,21.839390500012087,0.086220703125,0.025896148681640627,9.827513580322266,21.83814949999214,0.00011916691437363625,-0.0009136031731031835,-0.0003412156365811825,21.839390500012087
2025-10-06 13:39:56.298154,0.0772838918119669,0.03262348449323327,9.809641565680504,21.968461499986006,0.0026498850435018543,-0.008673289180733264,0.01398010790348053,21.968461499986006,0.07454498291015625,0.026195526123046875,9.828112335205079,21.967220499995165,0.00019267480820417404,0.0008714096038602293,0.0001526428386569023,21.968461499986006
2025-10-06 13:39:56.416831,0.07739994077011943,0.03277634578524158,9.809639811515808,22.08760249998886,0.005377921778708696,-0.0031379790860228242,0.010539021492004395,22.08760249998886,0.0868194580078125,0.03143463134765625,9.830956420898438,22.08636149999802,-0.002012508688494563,0.000887401751242578,-0.0006473017856478691,22.08760249998886
2025-10-06 13:39:56.536925,0.07811041401699186,0.032484798131044955,9.809635133743287,22.20674449999933,0.0024221177212893964,0.001494541468564421,0.02790759086608887,22.20674449999933,0.08158035278320312,0.032332763671875,9.838440856933595,22.20550350000849,0.00043923966586589813,-0.0011040465906262398,0.0007062666118144989,22.20674449999933
2025-10-06 13:39:56.657478,0.07863992507569492,0.03214912227122113,9.80963221013546,22.32588641665643,9.634201414883138e-05,0.0040755481389351195,0.0195279461145401,22.32588641665643,0.07948471069335938,0.03577560424804688,9.832004241943359,22.324645499989856,-0.0028744942974299192,-0.001952432794496417,0.0014222704339772463,22.32588641665643
2025-10-06 13:39:56.775473,0.07921428610570729,0.03177843392360956,9.80962870180607,22.4450284166669,0.005210152370855213,-0.0069301062868908055,0.024022116065025332,22.4450284166669,0.08247848510742188,0.023201751708984378,9.82960922241211,22.44378741667606,-0.0006008539348840714,-7.200735853984952e-05,0.002875132719054818,22.4450284166669
2025-10-06 13:39:56.900354,0.07933997383341193,0.031942368380259725,9.809626947641373,22.57409841666231,0.0062819652725011116,-0.004549334775656462,0.026268616318702698,22.57409841666231,0.08412506103515625,0.02664459228515625,9.840985565185548,22.572857416671468,0.0010512773878872395,-0.0013351918896660209,0.0001541823148727417,22.57409841666231
2025-10-06 13:39:57.023192,0.07962159949354827,0.031947660567238925,9.809624608755112,22.69324041667278,0.0015096779912710191,-0.009943420907948166,0.019684651494026185,22.69324041667278,0.080233154296875,0.025297393798828127,9.837542724609376,22.691999416652834,-0.00028934236615896225,-0.0013653377536684275,8.85985791683197e-05,22.69324041667278
2025-10-06 13:39:57.147410,0.08006456262432039,0.03185111983912066,9.809621685147286,22.812382416654145,-0.0016276729758828879,-0.006404037319589407,0.027771350741386414,22.812382416654145,0.08113128662109376,0.024698638916015626,9.838740234375,22.811141416663304,-0.0014710635878145695,-0.000873040989972651,-0.0011403611861169338,22.812382416654145
2025-10-06 13:39:57.280579,0.0802766886446625,0.031658810398075735,9.809620515704156,22.951380416663596,0.007740279128775001,-0.0017210662574507296,0.015797422528266908,22.951380416663596,0.08472381591796875,0.02784210205078125,9.821226654052735,22.950139416672755,-0.0014657778665423393,0.00010106759145855904,-8.970918133854866e-05,22.951380416663596
2025-10-06 13:39:57.412634,0.08058320151641965,0.03112444797763601,9.80961993098259,23.070522416674066,0.002943104635924101,-0.00507861057529226,0.024180575609207156,23.070522416674066,0.07873626708984376,0.028740234375,9.834698638916016,23.079210416675778,8.701952174305916e-05,-0.0013007051311433315,0.0014355175662785769,23.070522416674066
2025-10-06 13:39:57.534958,0.08131963091902435,0.03139118836261332,9.809612914323807,23.19959341667709,-0.0034814961533993485,0.00034282042644917965,0.029426697492599487,23.19959341667709,0.07903564453125,0.03382965087890625,9.841883697509767,23.198352416657144,0.0009587886743247509,-0.0015939422883093357,-0.001418307889252901,23.19959341667709
2025-10-06 13:39:57.650418,0.08167928036302328,0.031219241393264385,9.80960999071598,23.318734416679945,-9.893671609461308e-05,-0.0026286980230361225,0.022842732667922975,23.318734416679945,0.082628173828125,0.030237121582031252,9.826316070556642,23.31749341666,0.0011826809495687485,-0.00010251859202980995,-0.0016988078132271767,23.318734416679945
2025-10-06 13:39:57.774956,0.08219546159729361,0.03140871630515903,9.809605312943459,23.437877124990337,0.0032767979241907596,-0.006560388668440283,0.02239892899990082,23.437877124990337,0.08592132568359376,0.02544708251953125,9.832752685546875,23.436636124999495,-0.0015460443682968616,0.0018337873043492436,-0.00029275473207235336,23.437877124990337
2025-10-06 13:39:57.896746,0.08225755171850324,0.031186905833892525,9.809605312943459,23.56694812499336,-0.005616935854777694,0.0030918089230544867,0.008776670694351197,23.56694812499336,0.07843688964843751,0.03562591552734375,9.826316070556642,23.56570712500252,4.1563063859939575e-05,0.0005163653404451907,0.00020500412210822105,23.56694812499336
2025-10-06 13:39:58.030600,0.08216183097101748,0.03136784746544436,9.809605897665024,23.69601812498877,0.006753269126638771,-0.005471701067872346,0.023296476602554322,23.69601812498877,0.08457412719726563,0.022004241943359377,9.825867004394532,23.70470512501197,0.0009228563867509365,0.001358640263788402,-0.0005113705992698669,23.69601812498877
2025-10-06 13:39:58.151721,0.08200077672488988,0.031450405125506224,9.809607067108155,23.815160124999238,-0.00940174718387425,-0.007799587254412473,0.023145618438720705,23.815160124999238,0.07304809570312501,0.023800506591796878,9.81853225708008,23.813919125008397,-0.0015975453425198793,0.0009458165150135756,-0.0003344835713505745,23.815160124999238
2025-10-06 13:39:58.299544,0.0818845450412482,0.0316156392171979,9.809607067108155,23.964087125001242,-0.0058426840603351595,-0.003923228171188385,0.019552504420280458,23.964087125001242,0.07873626708984376,0.027542724609375003,9.829758911132814,23.9628461250104,-0.003600443946197629,-0.0016785418847575784,0.00040119001641869545,23.964087125001242
2025-10-06 13:39:58.441049,0.08184165936894715,0.03193316815188155,9.80960648238659,24.103086124989204,0.004379034619778395,-0.00259418117813766,0.018056201934814452,24.103086124989204,0.08277786254882813,0.02844085693359375,9.833052062988282,24.101845124998363,0.0018399371765553951,-0.0019205239368602633,0.0010693541262298822,24.103086124989204
2025-10-06 13:39:58.559055,0.08209405808709562,0.032070312767755245,9.809604143500328,24.232156125013717,-0.007249697735533119,-0.006473541527520866,-0.001400408148765564,24.232156125013717,0.08053253173828126,0.021405487060546877,9.817334747314453,24.23091512499377,0.00012093083932995796,0.00036463956348598003,0.0029931587632745504,24.232156125013717
2025-10-06 13:39:58.701683,0.08243023644201458,0.03266360187437385,9.809599465727807,24.361226999986684,-0.00204739342443645,-0.004073056220076979,0.018512869477272036,24.361226999986684,0.07993377685546875,0.028889923095703127,9.82287322998047,24.359985999995843,-0.0003317045047879219,-0.0005541669670492411,0.00020145904272794724,24.361226999986684
2025-10-06 13:39:58.827711,0.08226723616942763,0.03280798470368609,9.809600050449372,24.490297000011196,-0.0014353269897401334,-0.007510590904857964,0.012973802089691162,24.490297000011196,0.0814306640625,0.030686187744140628,9.828112335205079,24.48905599999125,0.0005580652505159378,-0.00045443695853464305,-0.00040839286521077156,24.490297000011196
2025-10-06 13:39:58.952618,0.0825441201031208,0.032328145285137,9.809599465727807,24.619367999985116,-0.005304740220308304,-0.004935109396465123,0.019710379242897036,24.619367999985116,0.08158035278320312,0.026195526123046875,9.820178833007812,24.618126999994274,-0.0021491837687790394,-7.805187487974763e-05,-0.0005571143701672554,24.619367999985116
2025-10-06 13:39:59.078601,0.08224625014699996,0.032298525483347475,9.809601804614067,24.738509999995586,-0.0012646613828837872,-0.005803624202962965,0.022551541328430177,24.738509999995586,0.08487350463867188,0.02664459228515625,9.838740234375,24.737269000004744,0.000779290683567524,0.0009511704556643963,0.0012098164297640324,24.738509999995586
2025-10-06 13:39:59.197619,0.0827124194148928,0.03210840646410361,9.809598881006242,24.867579999990994,-0.0003836230281740427,-0.007559458552859724,0.018064388036727906,24.867579999990994,0.08577163696289063,0.021106109619140626,9.83679428100586,24.866339000000153,0.0008166972547769547,-0.0002887083392124623,0.0013710367493331432,24.867579999990994
2025-10-06 13:39:59.343385,0.0822397451195866,0.032473366367630666,9.809601804614067,25.016506999993,0.006825043698772788,-0.0031343748257495465,0.0277912312746048,25.016506999993,0.092208251953125,0.02963836669921875,9.837991790771484,25.015266000002157,-0.001029144274070859,-0.000540277105756104,-0.002472064457833767,25.016506999993
2025-10-06 13:39:59.492822,0.08234551576897503,0.03256813237443566,9.809600050449372,25.155506000010064,-0.009447117922827602,-0.0015825694729574024,0.019260143637657167,25.155506000010064,0.07319778442382813,0.03263214111328125,9.820478210449219,25.15426499999012,0.0014061289839446545,0.000190658844076097,-0.002102335449308157,25.155506000010064
2025-10-06 13:39:59.622362,0.08269774655811489,0.032367974873632195,9.809598296284676,25.294504999998026,0.002325446801260114,-0.006771203633397818,0.02031030356884003,25.294504999998026,0.08322692871093751,0.024099884033203126,9.824070739746094,25.293264000007184,-0.001848048996180296,7.970533624757081e-05,0.002651193644851446,25.294504999998026
2025-10-06 13:39:59.743066,0.0825433343835175,0.03254020278342069,9.809598881006242,25.413647041656077,0.0017314153723418713,-0.009188762353733183,0.03707485556602478,25.413647041656077,0.08098159790039063,0.026494903564453127,9.836195526123047,25.412406041665236,-0.0008456185460090637,0.0004128362925257534,0.0006500741001218557,25.413647041656077
2025-10-06 13:39:59.866575,0.08273268367163837,0.032365494375117126,9.80959771156311,25.532789041666547,0.0024401984084397557,-0.008415299062617124,0.011928319931030273,25.532789041666547,0.08382568359375,0.024548950195312502,9.818232879638673,25.531548041675705,-0.0020125829614698887,-0.0008326953975483775,-0.0019710720516741276,25.532789041666547
2025-10-06 13:39:59.999126,0.08165152436122299,0.03271011236356571,9.809605897665024,25.66186004166957,-0.0008196151815354825,-0.007113341123331339,0.018805814981460573,25.66186004166957,0.08487350463867188,0.026794281005859375,9.826166381835938,25.66061904167873,-0.001577076269313693,0.000332121504470706,0.00035127904266119003,25.66186004166957
2025-10-06 13:40:00.141655,0.08136714868247509,0.03270546199986711,9.809608236551286,25.80085904165753,-0.0060737221688032155,-0.010850908777210863,0.02583884596824646,25.80085904165753,0.076640625,0.023501129150390626,9.830507354736328,25.79961804166669,-0.0010988526046276093,0.0020458039361983538,-0.0010232585482299328,25.80085904165753
2025-10-06 13:40:00.270442,0.08077173767611384,0.03244369631633163,9.809614083766938,25.939858041674597,0.0003595489449799061,-0.006547547634691,0.028527395725250246,25.939858041674597,0.07978408813476563,0.026494903564453127,9.826914825439454,25.938617041654652,-0.0015125919599086046,0.002230048878118396,0.0017370192799717188,25.939858041674597
2025-10-06 13:40:00.387267,0.079702144889161,0.03237499381648377,9.809622854590417,26.059000041655963,-0.004109340934082866,-0.009322930828202517,0.014896951317787172,26.059000041655963,0.07768844604492188,0.026345214843750003,9.820478210449219,26.057759041665122,0.0002142428420484066,-0.00012274461914785206,-0.0012005879543721676,26.059000041655963
2025-10-06 13:40:00.511074,0.07930553921498358,0.032081744531169534,9.809626947641373,26.178142041666433,0.0007779263611882926,-0.007832171777263284,0.017587255239486694,26.178142041666433,0.07888595581054687,0.0221539306640625,9.815538482666016,26.176901041675592,-0.001048991922289133,0.0019768273923546076,-0.0010242266580462456,26.178142041666433
2025-10-06 13:40:00.654113,0.07905321358703077,0.03155338921118528,9.809630455970765,26.317141041654395,-0.0013647675421088934,-0.0005678263097070158,0.01728378474712372,26.317141041654395,0.07439529418945313,0.03143463134765625,9.833800506591798,26.315900041663554,-0.0013808286748826504,0.0009182058274745941,0.0009569472167640924,26.317141041654395
2025-10-06 13:40:00.774164,0.07892929829657078,0.03158985665068031,9.809631625413894,26.44621075000032,0.008788292035460473,-0.0018018012307584287,0.019977596998214723,26.44621075000032,0.08592132568359376,0.031284942626953124,9.838141479492188,26.444969750009477,0.0014055846258997917,0.002111287321895361,0.0005316734313964844,26.44621075000032
2025-10-06 13:40:00.908444,0.07907187899574637,0.03164330842439085,9.809630455970765,26.56535275001079,-0.002281565275043249,-0.0051484048599377275,0.01354215145111084,26.56535275001079,0.07319778442382813,0.025297393798828127,9.815987548828126,26.564111749990843,0.0015377025119960308,0.0012346203438937664,-0.0013466100208461285,26.56535275001079
2025-10-06 13:40:01.057613,0.07879205318167806,0.03143817622214556,9.80963337957859,26.72420975001296,0.007578338664025069,0.0032896069809794427,0.008898877501487733,26.72420975001296,0.08457412719726563,0.030686187744140628,9.819729766845704,26.722968749993015,0.0016006887890398502,0.0015970051754266024,-0.0007646814920008183,26.72420975001296
2025-10-06 13:40:01.178221,0.07892057315446437,0.031457074605859815,9.80963221013546,26.843351749994326,0.002959157070145011,-0.005261548482812941,0.034945884346961976,26.843351749994326,0.08382568359375,0.0293389892578125,9.835896148681641,26.842110750003485,0.00041821179911494255,-0.0015495757106691599,0.0025184827391058207,26.843351749994326
2025-10-06 13:40:01.317806,0.07897137997671962,0.03078831073595211,9.809633964300156,26.982350750011392,0.0018605292029678822,-0.003994029730092734,0.008598915338516236,26.982350750011392,0.082628173828125,0.02245330810546875,9.809850311279297,26.981109749991447,0.00012002093717455864,0.0009629756095819175,0.001138309482485056,26.982350750011392
2025-10-06 13:40:01.444203,0.07965679242275656,0.03072115683462471,9.80962870180607,27.1114207500068,-0.0009205253329128027,0.0008631632337346674,0.01294515073299408,27.1114207500068,0.077838134765625,0.03203338623046875,9.826465759277344,27.110179749986855,-0.0005308077670633793,-0.0017688425723463297,0.0006075468845665455,27.1114207500068
2025-10-06 13:40:01.565847,0.08007868730463089,0.030782721620053053,9.809624608755112,27.230562749988167,0.007339516449719668,-0.008479102235287429,0.031060994267463685,27.230562749988167,0.08158035278320312,0.02155517578125,9.833201751708986,27.229321749997325,-0.0015339110977947712,-0.0002188794023822993,0.00029184529557824135,27.230562749988167
2025-10-06 13:40:01.693514,0.07972573474980892,0.0309383626235649,9.809627532362938,27.359633624990238,0.004399326285347342,-0.001299995924346149,0.015491028428077699,27.359633624990238,0.07768844604492188,0.028141479492187503,9.826465759277344,27.358392624999397,0.0031387698836624622,0.0022807996720075607,0.00021143443882465363,27.359633624990238
2025-10-06 13:40:01.833974,0.07982680935412646,0.03128417974803597,9.809625193476677,27.498632625007303,-0.004982449002563953,-0.0019451882061548532,0.008008931279182434,27.498632625007303,0.07589218139648438,0.025297393798828127,9.818981323242188,27.49739162498736,0.0007110843434929848,0.00013600842794403434,0.0003951028920710087,27.498632625007303
2025-10-06 13:40:01.977274,0.07965539457276465,0.03151637359522283,9.809625193476677,27.637631624995265,-0.00293660874478519,-0.00202769790077582,0.024324417114257812,27.637631624995265,0.07738906860351563,0.023950195312500002,9.826914825439454,27.646319624996977,-0.0007241442799568176,0.00061749666929245,0.002872783225029707,27.637631624995265
2025-10-06 13:40:02.092964,0.07934300707653165,0.031541489213705066,9.80962870180607,27.76670262499829,0.0028361005894839766,-0.001753433793783188,0.012645773291587831,27.76670262499829,0.08367599487304687,0.029488677978515627,9.827513580322266,27.765461625007447,-0.0020721806213259697,-0.000433020933996886,-0.0017344276420772076,27.76670262499829
2025-10-06 13:40:02.238746,0.07942645780742169,0.031429677202831956,9.809628117084504,27.90570162498625,0.004848291948437691,-0.0016416240669786932,0.02626803159713745,27.90570162498625,0.08711883544921875,0.029189300537109376,9.842632141113281,27.90446062499541,0.001780366525053978,-0.002482970478013158,-0.0005645663477480412,27.90570162498625
2025-10-06 13:40:02.378764,0.07932462489232421,0.03114991305861622,9.8096298712492,28.044700625003316,0.004800436142832041,0.006571644558571279,0.01593775570392609,28.044700625003316,0.0820294189453125,0.03442840576171875,9.821376342773439,28.043459625012474,0.000786877702921629,0.0001889429404400289,-0.0013643638230860233,28.044700625003316
2025-10-06 13:40:02.519786,0.07902391355484724,0.03109599076677114,9.80963221013546,28.183699624991277,0.0009098541643470527,-0.001906692513730377,0.003510668277740479,28.183699624991277,0.07798782348632813,0.025297393798828127,9.803862762451173,28.19238762499299,-0.001919719623401761,0.0005895652575418353,-9.134039282798767e-05,28.183699624991277
2025-10-06 13:40:02.665514,0.07873917242512107,0.03186214503832162,9.80963221013546,28.322699624986853,0.008679040465503931,-0.005516932478640229,0.025665183663368226,28.322699624986853,0.08801696777343751,0.02724334716796875,9.827513580322266,28.321458624996012,-0.000254316721111536,0.001993212616071105,-0.0010461239144206047,28.322699624986853
2025-10-06 13:40:02.780131,0.07875244743190705,0.03154022612376139,9.80963337957859,28.451770041661803,0.0005825745407491923,-0.003548435352277011,0.021472730040550232,28.451770041661803,0.07918533325195314,0.029488677978515627,9.841434631347656,28.45052904167096,-0.004390629939734936,0.00043140194611623883,-0.0012171422131359577,28.451770041661803
2025-10-06 13:40:02.904768,0.07828717351891101,0.03187045904807746,9.809635718464852,28.570912041672273,0.006736019840463996,-0.00447742315940559,0.016380974650382997,28.570912041672273,0.08532257080078126,0.03158432006835938,9.832602996826173,28.569671041652327,-0.0013497625477612019,-0.00014161771105136722,1.8619000911712646e-05,28.570912041672273
2025-10-06 13:40:03.029147,0.0785875376779586,0.03087489064084366,9.809636887907983,28.699983041675296,-0.0026953562814742327,-0.006475629166234285,0.0017103105783462524,28.699983041675296,0.07978408813476563,0.02424957275390625,9.813143463134766,28.69874204165535,0.00035491306334733963,0.001078037079423666,0.0004918728955090046,28.699983041675296
2025-10-06 13:40:03.167660,0.07843238546513022,0.030656481147743764,9.809638642072677,28.819125041656662,0.007638628939166665,-0.0014671806106343866,0.008743926286697389,28.819125041656662,0.082628173828125,0.027991790771484375,9.824220428466797,28.81788404166582,-0.0014095809310674667,0.0013672364875674248,-0.0018520830199122429,28.819125041656662
2025-10-06 13:40:03.294138,0.07833108245395125,0.030495034041814507,9.809639811515808,28.96805304166628,0.004147402653470636,0.0076755897374823695,0.03179481983184815,28.96805304166628,0.08367599487304687,0.037721557617187505,9.83110610961914,28.96681204167544,0.0005451659671962261,-0.0007242391002364457,0.001967561664059758,28.96805304166628
2025-10-06 13:40:03.433188,0.07882978599518538,0.029929781877435745,9.809637472629548,29.107052041654242,0.003499010391533375,0.0028520479565486315,0.014283578395843507,29.107052041654242,0.07918533325195314,0.03143463134765625,9.821975097656251,29.1058110416634,0.0006703799590468407,0.0014771459391340613,0.0006932353135198355,29.107052041654242
2025-10-06 13:40:03.560697,0.07885997224599123,0.02976443358231336,9.809638057351114,29.226194041664712,0.002121625654399395,-0.003269530017860234,0.008145756125450135,29.226194041664712,0.08307723999023438,0.02424957275390625,9.820927276611329,29.22495304167387,0.000992062035948038,0.000153695436893031,-7.030460983514786e-05,29.226194041664712
2025-10-06 13:40:03.685133,0.0786067603994161,0.029790935630444437,9.809639811515808,29.355265374993905,0.002374837500974536,-0.004044475669506937,0.01098808765411377,29.355265374993905,0.08217910766601563,0.0305364990234375,9.826316070556642,29.354024375003064,-0.0010127555578947067,0.00041578253149054945,-0.001155075617134571,29.355265374993905
2025-10-06 13:40:03.807099,0.07878815199248493,0.02972381599014625,9.809638642072677,29.474407375004375,0.001445002304390073,-0.0024804688221774997,0.004103575944900513,29.474407375004375,0.08113128662109376,0.026794281005859375,9.816137237548828,29.473166375013534,0.0003812536597251892,-0.0012443866580724716,-0.00014196475967764854,29.474407375004375
2025-10-06 13:40:03.940066,0.0788165292609483,0.029489989033900203,9.809639226794243,29.61340737499995,0.0050091543328017,-0.0067373012029565875,0.012335870862007142,29.61340737499995,0.08577163696289063,0.023351440429687502,9.824519805908203,29.61216637500911,-0.0006714691407978535,0.0003742011613212526,0.0003712107427418232,29.61340737499995
2025-10-06 13:40:04.061931,0.07898249882273377,0.02963347422424704,9.809637472629548,29.73254937501042,0.0028972314018756154,-0.0016416857368312778,0.014283578395843507,29.73254937501042,0.08487350463867188,0.028889923095703127,9.824220428466797,29.731308374990476,0.0010820222087204456,-9.96420276351273e-05,-0.00023194262757897377,29.73254937501042
2025-10-06 13:40:04.184434,0.07936019240878522,0.029557805315125734,9.809634549021721,29.851691374991788,-0.002869256129488349,0.0021762011898681525,0.03045288383960724,29.851691374991788,0.07559280395507813,0.028740234375,9.83439926147461,29.850450375000946,-0.00013697613030672073,-0.0003295308561064303,0.0002033938653767109,29.851691374991788
2025-10-06 13:40:04.313761,0.07947856198064983,0.02988468979485333,9.809632794857025,29.98076237499481,-0.007478287322446704,0.004094649804756045,0.019826738834381106,29.98076237499481,0.07738906860351563,0.03457809448242188,9.830507354736328,29.97952137500397,-0.0005452679470181465,0.0007515952456742525,0.002474821638315916,29.98076237499481
2025-10-06 13:40:04.435881,0.08008536592125894,0.029705150581430646,9.809628117084504,30.09990437500528,-0.0016484762728214265,0.0048729439009912315,0.028812739849090576,30.09990437500528,0.07978408813476563,0.03622467041015625,9.837542724609376,30.098663374985335,0.0009655756875872612,0.000903658801689744,0.00019924156367778778,30.09990437500528
2025-10-06 13:40:04.587470,0.08026963544078172,0.02935284441802651,9.809627532362938,30.248832374985795,-0.00033585858531296256,-0.0018101220927201212,0.021328303813934326,30.248832374985795,0.07798782348632813,0.030985565185546876,9.825567626953125,30.247591374994954,-0.0014577086549252272,-0.001884251949377358,-0.00021977024152874947,30.248832374985795
2025-10-06 13:40:04.713366,0.08000591687858105,0.028517962521873417,9.80963221013546,30.387831416679546,0.001574435904622078,0.0006713380152359606,0.027162070870399478,30.387831416679546,0.07589218139648438,0.030686187744140628,9.826914825439454,30.3865904166596,0.0005689822137355804,2.8439884772524238e-05,0.0024758214130997658,30.387831416679546
2025-10-06 13:40:04.856268,0.07968408247455955,0.02789883603109047,9.809636887907983,30.526830416667508,-0.0027440800331532955,0.001140775785315782,0.015930739045143128,30.526830416667508,0.07649093627929687,0.03113525390625,9.81763412475586,30.525589416676667,-0.0010967308189719915,0.0028390241786837578,-0.0022310023196041584,30.526830416667508
2025-10-06 13:40:04.973133,0.0798420486599207,0.028013430037535727,9.809635133743287,30.645972416677978,0.0014389266818761826,0.001175870499573648,0.010693387985229492,30.645972416677978,0.08217910766601563,0.029189300537109376,9.812694396972656,30.644731416658033,0.0007786722853779793,-0.0002772286534309387,0.001363435061648488,30.645972416677978
2025-10-06 13:40:05.091673,0.07933534174226224,0.02810045076766983,9.809639226794243,30.765114416659344,-0.0017965844180434943,-0.012682512535247952,0.01562902271747589,30.765114416659344,0.0814306640625,0.018112335205078125,9.829160156250001,30.763873416668503,0.0007915236055850983,0.0020614448003470898,0.0010827647056430578,30.765114416659344
2025-10-06 13:40:05.217620,0.0791223751846701,0.027646101554855706,9.80964215040207,30.88425741667743,0.008744903868064285,4.631177522242069e-05,0.004399445056915283,30.88425741667743,0.08412506103515625,0.026494903564453127,9.819729766845704,30.883016416657483,-0.0007724105380475521,-0.001958317356184125,-0.0015238183550536633,30.88425741667743
2025-10-06 13:40:05.337976,0.07905761727131903,0.027538425992242994,9.809642735123635,31.003399416658795,0.0029718016739934683,-0.003588230679742992,0.022211818099021913,31.003399416658795,0.08128097534179687,0.025147705078125002,9.832602996826173,31.002158416667953,-0.001139266649261117,0.0005835914635099471,-0.0004445808008313179,31.003399416658795
2025-10-06 13:40:05.474096,0.07902262534014881,0.027503847477491947,9.8096433198452,31.132470416661818,-0.0008851131331175566,0.00138607561821118,0.002751699686050415,31.132470416661818,0.08307723999023438,0.02784210205078125,9.822274475097657,31.131229416670976,0.0027770446613430977,-0.0007034341106191278,0.0015568824019283056,31.132470416661818
2025-10-06 13:40:05.596960,0.0784526497218758,0.027932754450012,9.809646243453026,31.26154141666484,0.0034270713664591316,-0.0006894095661118627,0.020411460399627688,31.26154141666484,0.07559280395507813,0.02365081787109375,9.818981323242188,31.270228416658938,0.0010929713025689125,0.0008296631276607513,-1.0064803063869476e-05,31.26154141666484
2025-10-06 13:40:05.726546,0.07867418610490859,0.027674837422091515,9.80964565873146,31.39061249999213,0.0009602133091539145,-0.004922151875216514,0.02939395308494568,31.39061249999213,0.08098159790039063,0.0209564208984375,9.845775604248047,31.38937150000129,-4.124036058783531e-05,0.0023379125632345676,-0.002579905092716217,31.39061249999213
2025-10-06 13:40:05.855988,0.07869260483421385,0.02820780199253932,9.809643904566766,31.519683499995153,0.008426230615004898,0.0014305647066794336,0.015624344944953919,31.519683499995153,0.07499404907226563,0.039966888427734375,9.831704864501953,31.518442500004312,0.001801326870918274,0.002608073642477393,0.0005780116189271212,31.519683499995153
2025-10-06 13:40:05.978145,0.07820314720273018,0.028228829128202054,9.809647412896156,31.648754499998176,0.0017306205164641143,0.004103932259604335,0.02055997967720032,31.648754499998176,0.07978408813476563,0.029937744140625,9.838590545654297,31.647513500007335,9.571481496095657e-05,-0.0008381410734727979,0.0013601582031697035,31.648754499998176
2025-10-06 13:40:06.118680,0.0786305421218276,0.028354345550760628,9.809643904566766,31.787753499986138,0.0007044798508286476,-0.008146368255838752,0.018917496800422668,31.787753499986138,0.0796343994140625,0.022303619384765626,9.824519805908203,31.786512499995297,0.0007542101666331291,0.0006952728144824505,-0.0008267597295343876,31.787753499986138
2025-10-06 13:40:06.243705,0.0784243820887059,0.028119075063150378,9.809646243453026,31.906895499996608,-0.0031309555750340225,0.006608710424043238,0.012478542923927308,31.906895499996608,0.07319778442382813,0.036074981689453126,9.825417938232423,31.905654500005767,-0.002770418766885996,-0.0012270307634025812,9.065167978405952e-05,31.906895499996608
2025-10-06 13:40:06.383461,0.07820387810468674,0.02704499636543915,9.809650921225549,32.05582350000623,0.008316202461719513,0.00019835080252960326,0.02310176432132721,32.05582350000623,0.08756790161132813,0.027991790771484375,9.825417938232423,32.05458249998628,0.0005512088537216187,0.0014878478832542896,0.002253125421702862,32.05582350000623
2025-10-06 13:40:06.527162,0.0785496769566089,0.0277040826366283,9.809646243453026,32.1948235000018,-0.0023581272549927238,-0.0007601151941344143,0.017717063426971436,32.1948235000018,0.07469467163085938,0.02664459228515625,9.823621673583984,32.19358250001096,-0.0004602079279720783,-0.002898336621001363,-0.0011216825805604458,32.1948235000018
2025-10-06 13:40:06.666121,0.07856336309574545,0.028044075386133047,9.809645074009897,32.33382274999167,-0.0028208795562386516,0.005186818325892091,0.012179750204086305,32.33382274999167,0.07708969116210938,0.03158432006835938,9.81763412475586,32.33258175000083,0.0008854949846863747,-0.003883967874571681,0.000175554770976305,32.33382274999167
2025-10-06 13:40:06.807007,0.07876253387890757,0.027465484261047095,9.809645074009897,32.472822749987245,0.007308471389114857,0.005166652284096926,0.016670411825180056,32.472822749987245,0.08547225952148438,0.034727783203125,9.821975097656251,32.4715817499964,0.0008181598968803883,0.0003504396590869874,-0.0016393428668379784,32.472822749987245
2025-10-06 13:40:06.936354,0.07901601981371642,0.02713471001246944,9.809644489288331,32.60189374999027,0.0022649555280804634,-0.0010888726101256907,0.014276561737060548,32.60189374999027,0.08158035278320312,0.026494903564453127,9.828112335205079,32.600652749999426,-0.001083897426724434,-0.0003163992951158434,-0.0013072285801172256,32.60189374999027
2025-10-06 13:40:07.078930,0.07965858313255013,0.027026321820449086,9.809639226794243,32.74089275000733,0.00626274255104363,-0.0023276829044334593,0.018772485852241515,32.74089275000733,0.08158035278320312,0.026943969726562503,9.831255798339845,32.73965174998739,-0.001025645062327385,-0.0002568266063462943,-0.0018987986259162426,32.74089275000733
2025-10-06 13:40:07.225886,0.07963462782092393,0.026794420334044847,9.809640396237373,32.88982074998785,-0.0034430689830333,0.0026942576444707812,0.02131602466106415,32.88982074998785,0.07843688964843751,0.0293389892578125,9.835447082519531,32.88857974999701,0.0003858441486954689,-0.0008066004957072437,-0.0018227491527795792,32.88982074998785
2025-10-06 13:40:07.364979,0.07900171240791679,0.026677279591094703,9.80964565873146,33.03874975000508,0.003027706537395716,0.005206417918670923,0.025651735067367554,33.03874975000508,0.0820294189453125,0.030087432861328128,9.840536499023438,33.037508749985136,-0.00253984984010458,0.0018173054559156299,0.001547188963741064,33.03874975000508
2025-10-06 13:40:07.508117,0.07909471968188882,0.02617443731753156,9.809646243453026,33.17774874999304,0.009670691695064307,0.004362061705905944,0.013526363968849183,33.17774874999304,0.09565109252929688,0.029937744140625,9.826914825439454,33.1765077500022,-0.0033407409209758043,0.0008193536195904016,-0.0009283372201025486,33.17774874999304
2025-10-06 13:40:07.643374,0.07872767899185419,0.026073255361989144,9.809649167060853,33.306819749996066,-0.004033016497269273,-0.0013746187300421298,0.009181882739067079,33.306819749996066,0.07050338745117188,0.0209564208984375,9.820627899169923,33.305578750005225,-0.002175723435357213,0.0008702186751179397,-1.2048985809087753e-05,33.306819749996066
2025-10-06 13:40:07.767542,0.07846792557276785,0.02634589321212843,9.809650921225549,33.43589087500004,-0.00018072464503347875,0.002544032167643309,0.015168262124061586,33.43589087500004,0.07559280395507813,0.028889923095703127,9.818232879638673,33.4346498750092,-0.00020007602870464325,0.0017807227559387684,0.002548227785155177,33.43589087500004
2025-10-06 13:40:07.890822,0.07842338623479009,0.026466802668292076,9.809650921225549,33.55503387498902,0.0019594567827880384,0.0013752993824891746,0.00813289225101471,33.55503387498902,0.07589218139648438,0.027093658447265627,9.818382568359375,33.55379287499818,-0.0013101431541144848,0.0008773483568802476,0.0015171435661613941,33.55503387498902
2025-10-06 13:40:08.027825,0.07848489163443446,0.026389258538838476,9.809650336503983,33.69403287500609,-0.0012455208878964187,0.004596304362639785,0.019060168862342835,33.69403287500609,0.07903564453125,0.030686187744140628,9.8243701171875,33.69279187498614,0.001684778369963169,0.00022948396508581936,-0.0015689819119870663,33.69403287500609
2025-10-06 13:40:08.150964,0.0789274893142283,0.025947871415410193,9.809647997617722,33.81317587499507,0.00025783480145037175,0.011174929034896195,0.015020912289619447,33.81317587499507,0.08397537231445312,0.03502716064453125,9.829459533691407,33.811934875004226,0.0015120990574359894,-0.0010207908926531672,-0.00048404233530163765,33.81317587499507
2025-10-06 13:40:08.275014,0.07833479178138078,0.025424047687556597,9.80965442955494,33.94224687499809,0.006987779019400478,0.0064596498222090305,0.017709462046623232,33.94224687499809,0.08547225952148438,0.03188369750976563,9.827962646484375,33.94100587500725,-0.0010849246755242348,-0.0017019403167068958,0.0021465327590703964,33.94224687499809
2025-10-06 13:40:08.414519,0.0783748177997768,0.024787116881925614,9.80965559899807,34.08124587498605,0.007845885325223208,0.005450004700105638,0.015163584351539612,34.08124587498605,0.08472381591796875,0.02903961181640625,9.81568817138672,34.08000487499521,0.0002995547838509083,-0.0007141910027712584,-0.0005405317060649395,34.08124587498605
2025-10-06 13:40:08.542656,0.0785966282710433,0.024507332181092353,9.80965442955494,34.20038887500414,0.0029837245121598246,0.008274497652892024,0.02220012366771698,34.20038887500414,0.07858657836914062,0.031284942626953124,9.83245330810547,34.199147875013296,0.0011715646833181381,-0.0009103066986426711,-0.0018662875518202782,34.20038887500414
2025-10-06 13:40:08.687520,0.07871310663409531,0.024807595841120928,9.809652675390245,34.3493165000109,-0.0023718682117760182,0.0030345039255917075,0.023099425435066226,34.3493165000109,0.08053253173828126,0.029937744140625,9.826914825439454,34.348075499990955,-0.0006771082989871502,5.513062933459878e-05,0.0007595119532197714,34.3493165000109
2025-10-06 13:40:08.816239,0.07837589588016272,0.024531730602029712,9.809656183719635,34.488316500006476,0.002006947137415409,0.002412239124532789,0.013217046260833741,34.488316500006476,0.08292755126953126,0.025746459960937502,9.826615447998048,34.48707549998653,-0.00039980048313736916,-0.002746875863522291,-0.0022761556319892406,34.488316500006476
2025-10-06 13:40:08.936966,0.07828039440326393,0.02434612718643621,9.809657353162766,34.60745849998784,0.005694977911189199,-0.000994686756748706,0.02384377598762512,34.60745849998784,0.08382568359375,0.022602996826171878,9.826166381835938,34.606217499997,0.00031176069751381874,-8.046848233789206e-05,-0.0010353708639740944,34.60745849998784
2025-10-06 13:40:09.058374,0.07776755704544484,0.024673011666163803,9.809660861492157,34.72660150000593,0.000968710044398904,0.002570335501804948,0.012463924884796144,34.72660150000593,0.07948471069335938,0.023800506591796878,9.833052062988282,34.72536049998598,0.0002539297565817833,-0.0019250158220529556,-0.0005447650328278542,34.72660150000593
2025-10-06 13:40:09.184583,0.07771932665258646,0.024648869060911238,9.809661446213722,34.85567250000895,0.001166629157960415,-0.0006986760324798524,0.018750266432762147,34.85567250000895,0.07334747314453126,0.023351440429687502,9.828711090087891,34.854431499989005,0.0005202097818255424,-0.0007501412183046341,-0.0006955340504646301,34.85567250000895
2025-10-06 13:40:09.305316,0.07763874471187591,0.025055369320325555,9.809660861492157,34.97481549999793,0.0009478336572647095,0.005481129703111947,0.03192345857620239,34.97481549999793,0.08337661743164063,0.027393035888671875,9.829010467529297,34.97357450000709,-0.00022185267880558968,-0.00042117200791835785,-0.003515359479933977,34.97481549999793
2025-10-06 13:40:09.431918,0.07785481760278344,0.025141476423013957,9.809659107327462,35.0939575000084,0.004623667504638434,-0.0011912811105139554,0.02219544589519501,35.0939575000084,0.08801696777343751,0.025596771240234375,9.83245330810547,35.092716499988455,-0.0003716009669005871,0.0019655353389680386,-0.0019454816356301308,35.0939575000084
2025-10-06 13:40:09.553229,0.07730863284319639,0.025168474114034327,9.809663200378418,35.223028500011424,0.007115805633366108,0.004619581305887551,0.015455360412597657,35.223028500011424,0.08173004150390625,0.032332763671875,9.831854553222657,35.22178749999148,-0.0007104659453034401,1.6442558262497187e-05,0.002270108088850975,35.223028500011424
2025-10-06 13:40:09.675567,0.07699281010776758,0.02532484601950273,9.809664954543114,35.342172250006115,-0.003645346099510789,-0.004518118409905583,0.018147418498992922,35.342172250006115,0.07529342651367188,0.025596771240234375,9.824220428466797,35.34093124998617,-0.001847574720159173,0.001692606252618134,0.0012258195783942938,35.342172250006115
2025-10-06 13:40:09.803526,0.07674687987193465,0.024939795448444785,9.80966787815094,35.47124325000914,0.0010912457574158907,0.0015551058319397272,0.017246362566947938,35.47124325000914,0.07409591674804687,0.029488677978515627,9.81718505859375,35.47000224998919,0.0006827367469668388,0.00028625360573641956,0.0007982309907674789,35.47124325000914
2025-10-06 13:40:09.922592,0.07717997582629324,0.025234515673946592,9.809663785099984,35.59038624999812,0.012633247459307313,0.0041044712997972965,0.012759793996810914,35.59038624999812,0.08861572265625,0.027542724609375003,9.821825408935547,35.58914525000728,-0.0021657643374055624,-0.0023040997330099344,-0.0019408855587244034,35.59038624999812
2025-10-06 13:40:10.065740,0.07769570938311518,0.02519326311070472,9.809659692049028,35.71945725000114,0.0011902372911572457,0.0074388757185079165,0.00857260286808014,35.71945725000114,0.07918533325195314,0.031734008789062504,9.82571731567383,35.7182162500103,-0.0005763391964137554,-0.0003531175898388028,-0.001360529102385044,35.71945725000114
2025-10-06 13:40:10.210374,0.07782266705296934,0.024970523023512214,9.809659692049028,35.878314250003314,0.004506129333749414,0.006913174486253411,0.01830295443534851,35.878314250003314,0.08217910766601563,0.030237121582031252,9.83155517578125,35.87707325001247,-0.00017519714310765266,0.001841160119511187,-0.0017945356667041779,35.878314250003314
2025-10-06 13:40:10.351326,0.07784893384203315,0.025016405393835157,9.809659107327462,36.01731424999889,-0.002705196049064398,0.0005803658463992179,0.005130931735038757,36.01731424999889,0.0772393798828125,0.027093658447265627,9.818083190917969,36.01607325000805,0.0014298036694526672,0.0007318856660276651,0.001229206332936883,36.01731424999889
2025-10-06 13:40:10.475964,0.07788925222121179,0.025068532407749446,9.809658522605897,36.14638525000191,0.0021942042186856273,0.006815162817947567,0.030578014254570008,36.14638525000191,0.07634124755859376,0.029937744140625,9.832602996826173,36.14514425001107,0.0016051549464464188,-0.0011024032719433308,-0.0023053172044456005,36.14638525000191
2025-10-06 13:40:10.625472,0.07756247509270907,0.024868788323365153,9.809662030935288,36.28538524999749,0.0034191228076815607,0.009110551276244223,0.01785154938697815,36.28538524999749,0.08128097534179687,0.02963836669921875,9.817334747314453,36.28414425000665,0.0016150455921888351,-0.0019316873513162136,0.0012222416698932648,36.28538524999749
2025-10-06 13:40:10.758038,0.07693888781592251,0.02396624774672091,9.80966904759407,36.42438424998545,0.0031445777602493764,0.005522427947726101,0.01874266505241394,36.42438424998545,0.07694000244140625,0.030386810302734376,9.817484436035157,36.42314324999461,-0.0016998106148093939,-0.0009907642379403114,-0.0009666909463703632,36.42438424998545
2025-10-06 13:40:10.879621,0.07733736642636359,0.024070990565232934,9.80966553926468,36.543527250003535,-0.0018942511919885876,0.011105858800001443,0.015602710247039795,36.543527250003535,0.0772393798828125,0.03323089599609375,9.81763412475586,36.542286250012694,-0.0010516676120460033,-0.001915177097544074,0.001056724227964878,36.543527250003535
2025-10-06 13:40:11.006545,0.07747811073437333,0.024360875417478382,9.809663785099984,36.67259825000656,0.008293526228517294,0.006924067209474743,0.017101351618766785,36.67259825000656,0.07888595581054687,0.031734008789062504,9.836494903564454,36.67135724998661,0.002121920697391033,-0.0006363954162225127,-0.00013853656128048897,36.67259825000656
2025-10-06 13:40:11.147996,0.07715985774993897,0.02372760140569881,9.80966787815094,36.811598250002135,0.0041211175918579104,0.006210142734926195,0.015151305198669434,36.811598250002135,0.08068222045898438,0.02544708251953125,9.821825408935547,36.81035725001129,-0.0028327503241598606,-0.0009651272557675838,-0.002037334255874157,36.811598250002135
2025-10-06 13:40:11.262499,0.07736673041246832,0.023911473497282714,9.80966553926468,36.930741249991115,-0.0011751807108521463,0.0019846729002892974,0.012758039832115174,36.930741249991115,0.07619155883789062,0.03188369750976563,9.814340972900391,36.929500250000274,0.001228103879839182,-0.0002585379988886416,0.0007566844578832388,36.930741249991115
2025-10-06 13:40:11.385323,0.07776862598955632,0.023545657068025323,9.809663200378418,37.05981224999414,0.004859538702294231,-0.0004935963638126851,0.00437781035900116,37.05981224999414,0.087418212890625,0.022752685546875002,9.8243701171875,37.0585712500033,2.1887943148612976e-05,0.0012057269923388958,-0.0001552887260913849,37.05981224999414
2025-10-06 13:40:11.510348,0.0786059107258916,0.02336986144306138,9.809657353162766,37.17895525001222,-0.0054081263020634655,-0.0004674871754832566,0.013964320421218873,37.17895525001222,0.07529342651367188,0.0197589111328125,9.830357666015626,37.17771424999228,0.001471907366067171,-0.0009893571259453893,-0.0016961712390184402,37.17895525001222
2025-10-06 13:40:11.637606,0.07894453760236501,0.02365394932916388,9.809653844833374,37.29809724999359,0.002186749018728733,0.009876324108336122,0.024595727920532228,37.29809724999359,0.08128097534179687,0.029937744140625,9.833650817871094,37.29685625000275,0.002015370875597,-0.0003684450057335198,-0.002484091091901064,37.29809724999359
2025-10-06 13:40:11.763458,0.0789231587201357,0.023778248343151065,9.809653844833374,37.4271685416752,-0.0015340901166200638,0.008704204049427063,0.0018430423736572267,37.4271685416752,0.07694000244140625,0.03338058471679688,9.813442840576172,37.425927541655255,0.0005128444172441959,0.004285416565835476,-0.0006235083565115929,37.4271685416752
2025-10-06 13:40:11.892463,0.07911409772001207,0.02429321902105585,9.809650921225549,37.556239541678224,0.0003706129733473063,0.008039544650819153,0.02010798990726471,37.556239541678224,0.07858657836914062,0.03622467041015625,9.828561401367187,37.55499854165828,0.0004375837743282318,-0.0007919209310784936,-0.0003776354715228081,37.556239541678224
2025-10-06 13:40:12.014188,0.07894757084548473,0.023892856054008007,9.809653260111808,37.68531054165214,-0.0047019653767347335,0.008439907617866994,0.007382109761238098,37.68531054165214,0.07559280395507813,0.030835876464843752,9.819729766845704,37.6840695416613,-7.057841867208481e-05,-0.0004935911856591702,0.001136112492531538,37.68531054165214
2025-10-06 13:40:12.156901,0.07885421639308333,0.024094799696467818,9.809653260111808,37.82431054167682,0.004672080622985959,0.011531113546807319,0.013668451309204101,37.82431054167682,0.08562194824218751,0.03382965087890625,9.82526824951172,37.82306954165688,0.0031111673451960087,-0.0005344322416931391,0.0008180718868970871,37.82431054167682
2025-10-06 13:40:12.290495,0.0784218330681324,0.024737002132460478,9.80965559899807,37.95338254165836,0.0089963798224926,-0.003181824067141861,0.007379770874977112,37.95338254165836,0.08771759033203125,0.023800506591796878,9.826465759277344,37.952141541667515,-0.0005111130885779858,0.0005773302400484681,0.00010467041283845901,37.95338254165836
2025-10-06 13:40:12.417285,0.0792863164935261,0.02430638896068558,9.809649751782418,38.08245354166138,-0.0017475591693073512,0.004134467972908169,0.011127836108207704,38.08245354166138,0.07858657836914062,0.031284942626953124,9.829908599853516,38.08121254167054,0.0001646336168050766,0.0019813906401395798,0.0007537198252975941,38.08245354166138
2025-10-06 13:40:12.550405,0.07918802845291793,0.024508864791132512,9.809649751782418,38.2115245416644,0.0028413904923945666,0.00647670267848298,0.017265073657035827,38.2115245416644,0.08187973022460938,0.02903961181640625,9.833201751708986,38.21028354167356,-0.000843532383441925,0.0016667107120156288,0.0019742732401937246,38.2115245416644
2025-10-06 13:40:12.670724,0.07954734899103642,0.02481348873814568,9.809646243453026,38.34059666667599,0.00382926844060421,0.005124255402479321,0.010981655716896058,38.34059666667599,0.08696914672851563,0.029937744140625,9.826615447998048,38.33935566665605,-0.0019859285093843937,1.2485514162108302e-05,0.0017456142231822014,38.34059666667599
2025-10-06 13:40:12.813605,0.07880683567374945,0.02465263777412474,9.809652675390245,38.479595666663954,0.004719470478594303,-0.00040306502021849157,0.017262150049209595,38.479595666663954,0.08068222045898438,0.02784210205078125,9.826615447998048,38.47835466667311,-0.0018315622583031654,-0.0019921460188925266,0.0016649800818413496,38.479595666663954
2025-10-06 13:40:12.946228,0.07918737064115704,0.0249555760785006,9.809648582339287,38.61859566665953,-0.002397056920453906,0.007826253755483776,0.01576935589313507,38.61859566665953,0.0748443603515625,0.03308120727539063,9.828411712646485,38.61735466666869,0.00046296417713165283,-0.002623399719595909,-0.0005897986702620983,38.61859566665953
2025-10-06 13:40:13.073860,0.07919629678130151,0.02432970473309979,9.809650336503983,38.737738666677615,-0.005848823636770249,0.0024645762727595866,0.023102349042892458,38.737738666677615,0.07499404907226563,0.025896148681640627,9.832602996826173,38.73649766665767,0.00015143584460020065,0.002968556247651577,-0.00020700599998235703,38.737738666677615
2025-10-06 13:40:13.203092,0.07898735932074488,0.024793441467918457,9.809650921225549,38.866809666651534,0.001844549858942628,0.006491498874966055,0.006486316323280335,38.866809666651534,0.08113128662109376,0.02724334716796875,9.823022918701172,38.86556866666069,0.0013938229531049728,-0.0003328639722894877,0.0003648274578154087,38.866809666651534
2025-10-06 13:40:13.329181,0.07885994483716786,0.024505801855120808,9.809652675390245,38.99588166666217,0.000924143297597766,0.00034252349752932786,0.01381930947303772,38.99588166666217,0.07903564453125,0.025746459960937502,9.826615447998048,38.99464066667133,9.650364518165588e-06,0.0005460437387228012,-0.0009832298383116722,38.99588166666217
2025-10-06 13:40:13.465367,0.07927080309949816,0.024398034929763526,9.809649167060853,39.13488166665775,0.0057523811236023905,0.003593753557652235,0.02744390666484833,39.13488166665775,0.08562194824218751,0.027542724609375003,9.824070739746094,39.133640666666906,0.0037462268956005573,0.0012985547073185444,0.0028357189148664474,39.13488166665775
2025-10-06 13:40:13.612178,0.0793263699207455,0.023975274385884406,9.809649751782418,39.273881666653324,0.002852728608995676,0.007758734403178097,0.020707329511642458,39.273881666653324,0.07843688964843751,0.026195526123046875,9.821226654052735,39.282568666676525,-0.0010559936054050922,-0.00018198667385149747,0.0027927327901124954,39.273881666653324
2025-10-06 13:40:13.732341,0.07910668820142747,0.02418155319057405,9.809651505947114,39.40295287501067,-0.004112639129161835,0.004408992463722825,0.0040907120704650884,39.40295287501067,0.07649093627929687,0.032183074951171876,9.817783813476563,39.401711874990724,0.00030599581077694893,0.0007379745366051793,0.001080517191439867,39.40295287501067
2025-10-06 13:40:13.856669,0.07885649132542312,0.024258325304836036,9.809653260111808,39.52209587499965,0.004370437385514379,0.0065775511600077155,0.019806273579597473,39.52209587499965,0.08367599487304687,0.03338058471679688,9.82960922241211,39.53078387500136,-0.002019372070208192,0.00014812382869422436,-0.0007958314381539822,39.52209587499965
2025-10-06 13:40:13.978471,0.07828926572576166,0.023603690683376047,9.809659107327462,39.65116687500267,-0.001049885842949152,0.006184362452477217,0.013812877535820008,39.65116687500267,0.07813751220703126,0.02963836669921875,9.816286926269532,39.64992587501183,0.000757554080337286,3.347714664414525e-05,0.0013198647648096085,39.65116687500267
2025-10-06 13:40:14.107067,0.0785614627506584,0.02389281950891018,9.809656183719635,39.77030987499165,0.0015219936892390251,-0.0011401362461037935,0.008426422476768494,39.77030987499165,0.08382568359375,0.02365081787109375,9.820627899169923,39.76906887500081,0.0015024468302726746,0.0007210639887489378,-0.00012998655438423157,39.77030987499165
2025-10-06 13:40:14.241822,0.07900909451767803,0.023487356216646733,9.809653844833374,39.90930987498723,0.0016731259413063527,0.003456613509915769,0.01935662269592285,39.90930987498723,0.08113128662109376,0.02664459228515625,9.8339501953125,39.90806887499639,1.0427553206682205e-05,-0.0006256141350604594,4.7616660594940186e-05,39.90930987498723
2025-10-06 13:40:14.384218,0.07919084242545069,0.022782524619251492,9.809653844833374,40.05823887500446,-0.0012030189391225576,0.002065800733398646,0.02055413246154785,40.05823887500446,0.08038284301757813,0.024399261474609375,9.83155517578125,40.05699787501362,0.0009052390232682228,0.0007071492145769298,7.795915007591248e-05,40.05823887500446
2025-10-06 13:40:14.521639,0.07940089451149106,0.022470431767869743,9.809652675390245,40.17738187499344,0.001131628090515733,0.0035754033504053952,0.010076506733894349,40.17738187499344,0.07888595581054687,0.028141479492187503,9.810598754882813,40.1761408750026,0.00016295630484819412,-0.0005830911104567349,0.0012169659603387117,40.17738187499344
2025-10-06 13:40:14.649756,0.07959549715742469,0.022524111948441713,9.809651505947114,40.31638187498902,0.002583610508590937,0.0092098991246894,0.023999311923980714,40.31638187498902,0.07619155883789062,0.03442840576171875,9.82676513671875,40.31514087499818,0.0018552402034401894,-0.0013227973831817508,-9.72086563706398e-05,40.31638187498902
2025-10-06 13:40:14.774600,0.0795580567047,0.022219444604124877,9.80965209066868,40.445452666666824,0.0050160704925656325,0.011759894995484502,0.017562112212181093,40.445452666666824,0.080233154296875,0.029488677978515627,9.839039611816407,40.44421166667598,0.0005927491001784801,-0.0007489521522074938,0.0020257607102394104,40.445452666666824
2025-10-06 13:40:14.916723,0.07974901397712529,0.022204356046859178,9.809650921225549,40.5844526666624,0.003328226013109088,0.01147560611134395,0.02819118082523346,40.5844526666624,0.08412506103515625,0.0335302734375,9.835746459960937,40.58321166667156,0.0008060545660555363,-0.0002985576575156301,0.0009872540831565857,40.5844526666624
2025-10-06 13:40:15.057110,0.07930983326397836,0.022021422707475723,9.80965442955494,40.71352466667304,0.003917086310684681,0.006120054500643164,0.017559188604354858,40.71352466667304,0.07993377685546875,0.02963836669921875,9.819430389404298,40.71228366665309,0.0024581742472946644,-0.003998246509581804,0.0033736610785126686,40.71352466667304
2025-10-06 13:40:15.211606,0.07872135668992997,0.021746850251220168,9.809660276770591,40.87238166667521,-0.00013477832078933715,0.009388403655029834,0.01336264193058014,40.87238166667521,0.07319778442382813,0.0293389892578125,9.826465759277344,40.871140666655265,-0.0005264636129140854,0.0003569777763914317,-0.0006467192433774471,40.87238166667521
2025-10-06 13:40:15.372830,0.07828893681988121,0.02141387416049838,9.809664369821549,41.02131066666334,-0.003294887747615576,0.0007400565035641193,0.01740014433860779,41.02131066666334,0.07738906860351563,0.02005828857421875,9.819280700683594,41.0200696666725,0.00046594394370913506,0.002767968224361539,0.0009220093488693237,41.02131066666334
2025-10-06 13:40:15.602498,0.0777775704022497,0.021733874457422645,9.80966787815094,41.24966766667785,0.004850603425875307,0.007455426079686731,0.01769601345062256,41.24966766667785,0.0820294189453125,0.027991790771484375,9.826615447998048,41.248426666657906,-9.126681834459305e-05,0.0020535029470920563,-0.001059751957654953,41.24966766667785
2025-10-06 13:40:15.758162,0.07770348435267807,0.021398922647349536,9.80966904759407,41.41845391667448,-0.00046410446986556054,0.0058444245206192135,0.007216633558273316,41.41845391667448,0.07274871826171875,0.027093658447265627,9.822124786376953,41.417212916654535,-0.0027154108975082636,-0.002962063066661358,0.0006755988579243422,41.41845391667448
2025-10-06 13:40:15.886778,0.07730482301674783,0.021495143605861813,9.809671971201897,41.5475249166775,-0.0024604626651853322,0.005299137399997563,0.02263164818286896,41.5475249166775,0.07514373779296875,0.026195526123046875,9.834848327636719,41.556212916679215,-0.001977733802050352,0.0005544886225834489,-0.0013728104531764984,41.557453916670056
2025-10-06 13:40:16.012694,0.07734325932338834,0.02206672720843926,9.809670217037201,41.67659691665904,-0.0017504553683102132,0.005775372558273375,0.018292429447174074,41.67659691665904,0.07574249267578126,0.027393035888671875,9.828860778808595,41.675355916668195,-0.00024454668164253235,0.0007547105196863413,-0.00011700158938765526,41.67659691665904
2025-10-06 13:40:16.160403,0.07708318613469602,0.021896518415305766,9.809672555923463,41.825524916668655,-0.00014319282956421376,0.006394647513516248,0.022929856181144716,41.825524916668655,0.08113128662109376,0.028291168212890627,9.821376342773439,41.824283916677814,-0.0011357935145497322,-0.002315073274075985,0.001053649466484785,41.825524916668655
2025-10-06 13:40:16.281153,0.07686947953887284,0.02158188796369359,9.809674894809723,41.95459691667929,0.003663043063133955,0.009253986217081548,0.02232876241207123,41.95459691667929,0.07694000244140625,0.030237121582031252,9.83155517578125,41.95335591665935,0.0009709242731332779,-0.0007839247118681669,0.00016448460519313812,41.95459691667929
2025-10-06 13:40:16.407860,0.07665463090874255,0.021734785800799728,9.809676648974419,42.06381091667572,-0.0042052900884300476,0.004909806484356523,-0.008508283495903015,42.06381091667572,0.07409591674804687,0.02664459228515625,9.807754669189453,42.062569916655775,1.242058351635933e-05,-0.001928608980961144,0.0010858161840587854,42.06381091667572
2025-10-06 13:40:16.561502,0.07630702764261514,0.022016445721965285,9.809678403139115,42.2226689166564,-0.0025104883359745147,0.008220675860065967,0.006009768247604371,42.2226689166564,0.07843688964843751,0.029788055419921876,9.818083190917969,42.22142791666556,0.002003330737352371,-0.0012470660731196404,-0.0011572111397981644,42.2226689166564
2025-10-06 13:40:16.698962,0.0763219974283129,0.02198335413588211,9.809678403139115,42.3616688750044,0.006006798958405853,0.006008436635602266,0.011997317075729371,42.3616688750044,0.0796343994140625,0.0305364990234375,9.819879455566406,42.360427875013556,-0.0016508034896105528,-0.0008095046505331993,-0.0007712286897003651,42.3616688750044
2025-10-06 13:40:16.817008,0.07621149875689298,0.021827644610311836,9.809679572582246,42.49073987500742,0.003123523215763271,0.00451756794936955,0.014391167163848877,42.49073987500742,0.07858657836914062,0.024548950195312502,9.821825408935547,42.489498874987476,0.0012567788362503052,0.001255087205208838,0.0017149255145341158,42.49073987500742
2025-10-06 13:40:16.956608,0.07589244634844364,0.021523520874325186,9.809683080911636,42.619811874988955,-0.0020959070418030026,0.008863291712477803,0.0028616273403167724,42.619811874988955,0.07080276489257813,0.030985565185546876,9.81853225708008,42.61857087499811,-0.00043263379484415054,0.00108491035643965,0.0011433444451540709,42.619811874988955
2025-10-06 13:40:17.098303,0.07593913727905602,0.02164475695230067,9.809681911468507,42.76874087500619,0.00848529662936926,0.008742051066365093,0.018878905177116396,42.76874087500619,0.0844244384765625,0.0293389892578125,9.8339501953125,42.76749987498624,-0.001150778727605939,-0.0005987600889056921,-0.00090071652084589,42.76874087500619
2025-10-06 13:40:17.242537,0.07614630230236799,0.02151627352461219,9.809680742025376,42.907740875001764,0.00543405048083514,0.012013999912887813,0.005708051919937134,42.907740875001764,0.08038284301757813,0.03308120727539063,9.821226654052735,42.90649987501092,0.002346603199839592,-0.00041672776569612324,0.0006770435720682144,42.907740875001764
2025-10-06 13:40:17.381611,0.0760575525322929,0.021660140154417605,9.809681326746942,43.04674087499734,0.0047743566473945976,0.001242234113160521,0.010048440098762513,43.04674087499734,0.07544311523437501,0.020357666015625,9.828711090087891,43.0454998750065,5.543651059269905e-05,-0.0010398412123322487,-0.0003267219290137291,43.04674087499734
2025-10-06 13:40:17.511564,0.07640310470480473,0.021946658289525658,9.80967781841755,43.17581287500798,0.011314481059089304,0.004997311437036842,0.018883582949638367,43.17581287500798,0.08652008056640625,0.026943969726562503,9.831255798339845,43.17457187498803,0.0009275120683014393,-0.0007313362439163029,0.00033298181369900703,43.17581287500798
2025-10-06 13:40:17.640697,0.07700441317632795,0.021466951346956194,9.809674310088159,43.30488487498951,0.004126873444765806,0.0051776409382000566,0.014695807099342347,43.30488487498951,0.07813751220703126,0.029488677978515627,9.821825408935547,43.30364387499867,-0.0011625424958765507,-0.0018045364413410425,-0.00012058299034833908,43.30488487498951
2025-10-06 13:40:17.784622,0.07654946325346827,0.02122808801941574,9.809678403139115,43.45381587499287,0.010719060916453601,0.004069305779412389,-0.004318753480911255,43.45381587499287,0.08696914672851563,0.024698638916015626,9.818232879638673,43.45257487500203,0.0014448370784521103,0.0020362958312034607,-0.0001478111371397972,43.45381587499287
2025-10-06 13:40:17.911129,0.0762997734406963,0.021781830762047323,9.80967898786068,43.572958875010954,0.007525910153053701,0.01144906523404643,0.006308560967445374,43.572958875010954,0.08397537231445312,0.03158432006835938,9.823322296142578,43.57171787499101,0.0012599616311490536,-0.003383270464837551,-0.001029299572110176,43.572958875010954
2025-10-06 13:40:18.042176,0.07677787925116718,0.022344022274482997,9.809674310088159,43.71195987498504,-0.0034304061066359284,0.009389986514579505,0.019785223603248598,43.71195987498504,0.07319778442382813,0.030087432861328128,9.839788055419922,43.7107188749942,0.0019565089605748653,-0.0007953082676976919,0.00019109295681118965,43.71195987498504
2025-10-06 13:40:18.189824,0.07655656213872135,0.023328017306048426,9.809673725366594,43.85095987500972,0.0068200552929192785,0.004663773465435952,0.014097636938095093,43.85095987500972,0.08187973022460938,0.027393035888671875,9.83110610961914,43.849718874989776,0.0037948223762214184,6.571091944351792e-05,3.963382914662361e-05,43.85095987500972
2025-10-06 13:40:18.341660,0.07673342213965953,0.023623381638899446,9.809671386480332,44.00981687501189,0.008888526102527976,0.00855969331227243,0.022033478021621707,44.00981687501189,0.08247848510742188,0.027991790771484375,9.833052062988282,44.00857587499195,-0.0015437754336744547,0.000885271467268467,0.0023169363848865032,44.00981687501189
2025-10-06 13:40:18.470378,0.07687801281921566,0.024173054171260446,9.80966904759407,44.128959875000874,0.0014091881085187196,0.0005255847447551787,0.02353270411491394,44.128959875000874,0.07634124755859376,0.024099884033203126,9.82392105102539,44.12771887501003,-0.0003684968687593937,0.001559367054142058,-0.0009487695060670376,44.128959875000874
2025-10-06 13:40:18.599816,0.0765509250573814,0.024373168274760246,9.809670801758767,44.267960875004064,0.005029423157684505,0.006163326180540026,0.018740326166152954,44.267960875004064,0.08038284301757813,0.028889923095703127,9.825417938232423,44.26671987501322,-0.003212517127394676,0.000964467297308147,-0.0012480285950005054,44.267960875004064
2025-10-06 13:40:18.714599,0.07709491711109877,0.02416635499801487,9.809667293429376,44.387100541673135,-0.006142463497817516,0.0027776147285476327,0.019492862820625307,44.387100541673135,0.07334747314453126,0.029488677978515627,9.827363891601562,44.38585954165319,-0.0016420818865299225,0.0013079512864351273,0.0007034977898001671,44.387100541673135
2025-10-06 13:40:18.845827,0.07661595249082893,0.024229998285882175,9.809670801758767,44.51617254165467,0.006910353661514819,0.0091505864309147,0.017693089842796328,44.51617254165467,0.08128097534179687,0.034129028320312504,9.831255798339845,44.51493154166383,-0.001723243622109294,-7.347407517954707e-05,2.6277266442775726e-05,44.51617254165467
2025-10-06 13:40:18.985031,0.0762331974087283,0.02423213160596788,9.809673725366594,44.65517254167935,0.002054003519006074,0.0006161960307508708,0.02113300681114197,44.65517254167935,0.08307723999023438,0.02664459228515625,9.832602996826173,44.653931541659404,-0.0008942536078393459,0.0015379737596958876,-0.0014661145396530628,44.65517254167935
2025-10-06 13:40:19.130870,0.07582430801354349,0.02463927597273141,9.809676064252853,44.794172541674925,0.005007601166144014,0.004100958402268589,0.016190940141677858,44.794172541674925,0.07978408813476563,0.030835876464843752,9.830207977294922,44.79293154165498,0.0019519873894751072,-0.0014556311070919037,-0.00017150584608316422,44.794172541674925
2025-10-06 13:40:19.268862,0.07657925664447249,0.024696770547889175,9.809670217037201,44.9331725416705,0.003953275093808771,0.000600623250938952,0.016645853519439698,44.9331725416705,0.07589218139648438,0.026345214843750003,9.822723541259766,44.93193154167966,0.0011616707779467106,-0.00035325309727340937,0.00022519007325172424,44.9331725416705
2025-10-06 13:40:19.413845,0.07705142844468356,0.024620551178231836,9.80966670870781,45.08210154165863,-0.0026561342552304267,0.003820305755361915,0.012607766389846802,45.08210154165863,0.07888595581054687,0.026794281005859375,9.833351440429688,45.08086054166779,0.0008400832302868366,-0.0018463139422237873,-0.0005317991599440575,45.08210154165863
2025-10-06 13:40:19.557165,0.07695274754427374,0.024395214105024935,9.80966787815094,45.22110254166182,0.007621379652991892,0.0018003120180219412,0.01470223903656006,45.22110254166182,0.08397537231445312,0.025596771240234375,9.828711090087891,45.21986154167098,0.0016613788902759552,-0.000655901909340173,0.002320212544873357,45.22110254166182
2025-10-06 13:40:19.702273,0.07702210100367665,0.024522690258454532,9.80966670870781,45.37003162500332,0.002761977994814515,-0.0002731197886168957,0.014104068875312806,45.37003162500332,0.08008346557617188,0.023201751708984378,9.821376342773439,45.36879062501248,-0.002258711028844118,-0.0009681121446192265,0.0007907971739768982,45.37003162500332
2025-10-06 13:40:19.829082,0.07711117054335774,0.024013923110906037,9.809667293429376,45.4891746249923,-0.001518375724554062,-0.0015606172895058991,0.005421538352966309,45.4891746249923,0.07514373779296875,0.024698638916015626,9.826615447998048,45.48793362500146,0.00024228356778621674,-8.307630196213722e-06,0.0026760976761579514,45.4891746249923
2025-10-06 13:40:19.958999,0.07748531011864543,0.024536463192198425,9.809663200378418,45.608317625010386,-0.0006949963979423047,0.0061497245519422,0.0058752822875976565,45.608317625010386,0.080233154296875,0.030686187744140628,9.819729766845704,45.60707662499044,0.0014121420681476593,-0.003079886082559824,-0.0008348315022885799,45.608317625010386
2025-10-06 13:40:20.095903,0.07785263403318823,0.02522101911250502,9.809658522605897,45.757246624998515,0.005224605957046152,0.0038185927039012316,0.02264509677886963,45.757246624998515,0.08277786254882813,0.024998016357421875,9.828262023925781,45.756005625007674,0.0009246752597391605,-0.0006063295295462012,0.00205330946482718,45.757246624998515
2025-10-06 13:40:20.221781,0.07871894471347332,0.025672922087833287,9.809650336503983,45.88631862500915,0.005855173347517849,0.0024685551202856004,0.01920985758304596,45.88631862500915,0.08173004150390625,0.02844085693359375,9.84113525390625,45.88507762498921,0.0005426518619060516,-0.0029411455616354942,-0.000441680196672678,45.88631862500915
2025-10-06 13:40:20.347828,0.0783798062056303,0.025903144783806058,9.809652675390245,46.015389625012176,0.008439651802182199,0.005381797843147069,0.01471744179725647,46.015389625012176,0.08427474975585938,0.032482452392578125,9.820927276611329,46.01414862499223,0.00046634767204523087,0.0006084799533709884,0.0019226951990276575,46.015389625012176
2025-10-06 13:40:20.465537,0.07885996310971678,0.025663068615831435,9.809649167060853,46.13453362500877,-0.00700938630849123,0.004424361961428076,-0.006385744214057923,46.13453362500877,0.07289840698242188,0.030835876464843752,9.811945953369142,46.133292624988826,0.0010366286151111126,0.00011228595394641161,-8.330028504133224e-05,46.13453362500877
2025-10-06 13:40:20.589688,0.07877646669745446,0.02587678206386045,9.809649751782418,46.25367662499775,-0.004381172508001328,0.007054736490827054,0.010828458666801453,46.25367662499775,0.07499404907226563,0.034877471923828125,9.824669494628907,46.25243562500691,0.0006234468892216682,-0.0012394378427416086,-0.00010333163663744926,46.25367662499775
