timestamp,gravity_x,gravity_y,gravity_z,gravity_time,lin_acc_x,lin_acc_y,lin_acc_z,lin_acc_time,acc_x,acc_y,acc_z,acc_time,gyro_x,gyro_y,gyro_z,gyro_time
2025-10-06 13:47:38.048109,9.749683046936989,0.18478155288845302,-1.0703395494818688,9.39383491667104,-0.056291145086288456,-0.00021536026149988175,0.020123850479722025,9.39383491667104,9.691895599365235,0.18097366333007814,-1.0506651306152344,9.39383491667104,0.000530678778886795,-0.00040185166290029883,-0.0014457982033491135,9.39383491667104
2025-10-06 13:47:38.178959,9.749725146889688,0.18463414823636415,-1.0699833078682424,9.522915041685337,-0.04884880900382996,-0.0012654471024870872,0.02605409659445286,9.522915041685337,9.69788314819336,0.18651214599609375,-1.0460247802734375,9.522915041685337,-0.0014539617113769054,-0.002529347315430641,0.0007895200978964567,9.522915041685337
2025-10-06 13:47:38.327006,9.749827473163606,0.18378195310011508,-1.069207163080573,9.67185304168379,-0.05448903322219849,0.0049755237065255645,0.015547746419906618,9.67185304168379,9.694290618896485,0.1884580993652344,-1.050066375732422,9.67185304168379,-0.0013045428786426783,-0.0005529805785045028,0.0014116282109171152,9.67185304168379
2025-10-06 13:47:38.471847,9.74990699529648,0.18328123044222594,-1.068561995923519,9.810861041682074,-0.056963574886322026,0.00637441523373127,0.030770387649536133,9.810861041682074,9.698032836914063,0.1874102783203125,-1.0401869201660157,9.810861041682074,-0.0007083551026880741,0.0004722864250652492,9.340234100818634e-06,9.810861041682074
2025-10-06 13:47:38.629714,9.749977161884308,0.18318705372512342,-1.06793963290751,9.959799041680526,-0.056434986591339116,0.013354273103177548,0.032393574714660645,9.959799041680526,9.699380035400392,0.19534378051757814,-1.031205596923828,9.959799041680526,-0.0005611949600279331,0.002890702337026596,-0.002191005740314722,9.959799041680526
2025-10-06 13:47:38.745714,9.75002861738205,0.18354923391714692,-1.067404027953744,10.09880704167881,-0.061426169872283935,0.005058535896241665,0.020481626987457275,10.09880704167881,9.687554626464845,0.1878593444824219,-1.0410850524902344,10.09880704167881,-0.0016762688755989075,0.00101149408146739,0.001506134169176221,10.09880704167881
2025-10-06 13:47:38.871724,9.750115740895271,0.1832970179244876,-1.0666577039659024,10.217957041662885,-0.06106422722339631,0.004861722271889448,0.02617096781730652,10.217957041662885,9.679621124267578,0.19145187377929687,-1.0455757141113282,10.227887041663053,-0.002422693185508251,-0.00023903997498564422,-0.0003404645249247551,10.217957041662885
2025-10-06 13:47:38.993052,9.750108139514923,0.1839190885797143,-1.0666208665072918,10.34703704167623,-0.060457870960235596,0.009329068120568992,0.03242164134979248,10.34703704167623,9.691745910644531,0.19175125122070313,-1.0391390991210938,10.34703704167623,0.0009555378928780556,0.0012884873431175947,0.001842050114646554,10.34703704167623
2025-10-06 13:47:39.117377,9.750153747797013,0.1841069486550987,-1.0661545510590078,10.466187291662209,-0.06739032983779908,0.006297067534178496,0.021027903109788897,10.466187291662209,9.685309295654298,0.19369720458984377,-1.0455757141113282,10.466187291662209,-0.0012089777737855911,0.0006971178809180856,-8.51023942232132e-05,10.466187291662209
2025-10-06 13:47:39.253165,9.750171874165536,0.184419263061136,-1.065949094519019,10.605195291660493,-0.062467558979988104,-0.0007511844858527184,0.019025670289993288,10.605195291660493,9.686506805419922,0.1886077880859375,-1.0412347412109375,10.605195291660493,0.0018067019991576672,0.00036496162647381425,-0.0021146158687770367,10.605195291660493
2025-10-06 13:47:39.385893,9.750197601914406,0.18499165065586567,-1.0656067400425673,10.734275291673839,-0.050967839956283574,0.00032294902950525284,0.02377368248999119,10.734275291673839,9.700427856445312,0.18636245727539064,-1.0370434570312501,10.734275291673839,0.0003852304071187973,-0.0005483339191414416,7.531372830271721e-05,10.734275291673839
2025-10-06 13:47:39.516633,9.750265429615975,0.18549571719020605,-1.0648998116701842,10.86335429167957,-0.04295189201831818,-0.001079195011407137,0.02426360607147217,10.86335429167957,9.698182525634767,0.1866618347167969,-1.0400372314453126,10.86335429167957,0.0009003016166388988,-0.0007937251939438283,-0.002288244664669037,10.86335429167957
2025-10-06 13:47:39.644632,9.750251981019975,0.1862704915367067,-1.0648756919056177,10.992433291685302,-0.06090284407138825,-0.0003571552410721779,0.0309764289110899,10.992433291685302,9.68979995727539,0.18875747680664062,-1.034498748779297,10.992433291685302,0.0006456370465457439,-0.001803767983801663,0.00166277214884758,10.992433291685302
2025-10-06 13:47:39.779220,9.750244964361192,0.1860421760380268,-1.064995413646102,11.121513291669544,-0.05745123267173767,-0.0025238044559955596,0.023012301921844485,11.121513291669544,9.693542175292968,0.1850152587890625,-1.041534118652344,11.121513291669544,0.0007729288190603256,0.002056380733847618,0.0030955348629504442,11.121513291669544
2025-10-06 13:47:39.910110,9.750330918431283,0.18590589936822655,-1.064235567972064,11.250592291675275,-0.0561899882555008,-0.0013397432863712312,0.03093410968780518,11.250592291675275,9.69548812866211,0.18411712646484377,-1.031055908203125,11.250592291675275,-0.002178323920816183,4.988530417904258e-05,-0.0019894870929419994,11.250592291675275
2025-10-06 13:47:40.031346,9.75039874613285,0.18575061924755573,-1.0636304542422295,11.379671291681007,-0.05221680521965027,0.0010609041899442672,0.03122771300375462,11.379671291681007,9.703571319580078,0.18755996704101563,-1.0353968811035157,11.379671291681007,-0.0008828947320580482,-0.0012643313966691494,0.0002231411635875702,11.379671291681007
2025-10-06 13:47:40.152712,9.750447862744332,0.18562219977378847,-1.0632106972485782,11.49882158334367,-0.05061876118183136,0.012415941171348095,0.024820261001586914,11.49882158334367,9.701026611328125,0.19564315795898438,-1.0349478149414062,11.49882158334367,0.000575388316065073,-0.00010822174954228103,-0.0021390868350863457,11.49882158334367
2025-10-06 13:47:40.280498,9.750533816814423,0.18610620304942133,-1.0623518143594266,11.627901583327912,-0.05459545254707337,0.0029506511986255647,0.0232121305167675,11.627901583327912,9.695338439941407,0.1850152587890625,-1.0397378540039064,11.627901583327912,-0.00013363920152187347,0.0022764517925679684,-0.0018590651452541351,11.627901583327912
2025-10-06 13:47:40.407754,9.750576501488686,0.18644680336117744,-1.0618918577581644,11.756980583333643,-0.05388969361782074,-0.006670613251626492,0.016016546934843064,11.756980583333643,9.696835327148438,0.18007553100585938,-1.0475216674804688,11.756980583333643,7.009878754615784e-05,-0.0010138030629605055,-0.0015816832892596722,11.756980583333643
2025-10-06 13:47:40.533762,9.750567730665207,0.18613088926300408,-1.062016184180975,11.876130583346821,-0.05418205440044403,0.00442285219207406,0.020182322636246683,11.876130583346821,9.694290618896485,0.19130218505859375,-1.0407856750488282,11.876130583346821,-0.00043552741408348083,0.000744274933822453,0.001317010959610343,11.876130583346821
2025-10-06 13:47:40.673029,9.750570069551468,0.18609070792794227,-1.0620103369653227,12.015138583345106,-0.05268692135810853,0.006558657344430685,0.02257142186164856,12.015138583345106,9.697583770751953,0.1932481384277344,-1.042881317138672,12.015138583345106,0.0003912155516445637,0.0019511193968355656,0.001690813573077321,12.015138583345106
2025-10-06 13:47:40.800173,9.7505846875906,0.18625384524464608,-1.0618523890525102,12.144218583329348,-0.04925752937793732,-0.0012385499104857446,0.025257486552000045,12.144218583329348,9.701176300048829,0.18157241821289063,-1.0364447021484375,12.144218583329348,-0.0010194338392466307,-0.0010103518143296242,-0.00025405222550034523,12.144218583329348
2025-10-06 13:47:40.942159,9.750659531950951,0.18524441482499243,-1.061333667933941,12.29315558334929,-0.06475148141384125,0.009051562920212745,0.013213537931442261,12.29315558334929,9.686506805419922,0.19504440307617188,-1.0488688659667968,12.29315558334929,0.0008369814604520798,-0.001835486269555986,-0.00026670005172491074,12.29315558334929
2025-10-06 13:47:41.078868,9.75065602362156,0.1852861493267119,-1.0613483590632677,12.432164583326085,-0.060258480906486514,-0.000719993244856596,0.028945033103227616,12.432164583326085,9.696535949707032,0.18351837158203127,-1.0386900329589843,12.432164583326085,-0.00218343292362988,0.0009746034047566354,0.0015960265882313251,12.432164583326085
2025-10-06 13:47:41.206183,9.7506671333313,0.18584574613720178,-1.0611570820212364,12.55131404165877,-0.05907091140747071,-0.0033752321451902393,0.020072321891784668,12.55131404165877,9.694290618896485,0.18336868286132812,-1.0499166870117187,12.55131404165877,0.001097997184842825,0.001235769595950842,-0.0003762482665479183,12.55131404165877
2025-10-06 13:47:41.330599,9.750650176405907,0.18604252321645617,-1.061266351863742,12.680393041664502,-0.0671383148431778,0.0018167664483189584,0.008505506068468094,12.680393041664502,9.68590805053711,0.18995498657226564,-1.0436297607421876,12.680393041664502,-0.0004940819926559925,-0.001552514499053359,0.0017059987876564264,12.680393041664502
2025-10-06 13:47:41.457640,9.75057357788086,0.18652992518618705,-1.0618946351855993,12.809472041670233,-0.062420196533203125,-0.003909685928374529,0.022156269550323487,12.809472041670233,9.685758361816406,0.18052459716796876,-1.0434800720214845,12.809472041670233,-4.604551941156387e-05,0.0025941855274140835,-7.798895239830017e-05,12.809472041670233
2025-10-06 13:47:41.602540,9.75059462785721,0.18613174807280303,-1.0617722821980715,12.948481041676132,-0.05899840593338013,0.009661116879433393,0.019190561771392823,12.948481041676132,9.691446533203125,0.19549346923828126,-1.0440788269042969,12.948481041676132,-0.000638977624475956,9.893486276268959e-05,0.0027752788737416267,12.948481041676132
2025-10-06 13:47:41.741007,9.750628541707993,0.18606450509279968,-1.0614726123958826,13.077560041681863,-0.05933169722557068,-0.0007499054074287415,0.0244296669960022,13.077560041681863,9.699080657958985,0.183218994140625,-1.0410850524902344,13.087489041674417,-0.002215242711827159,0.0008813487365841866,0.00014765001833438873,13.077560041681863
2025-10-06 13:47:41.861446,9.750696369409562,0.18660352701321245,-1.0607597637176513,13.206639041658491,-0.06628520607948303,0.008141462076455355,0.02072253227233887,13.206639041658491,9.68111801147461,0.19040405273437502,-1.0365943908691406,13.206639041658491,-0.001110202632844448,0.0006685085245408118,-0.0007290616631507874,13.206639041658491
2025-10-06 13:47:41.984542,9.75070630967617,0.18688218338415027,-1.0606161414831878,13.335718041664222,-0.06479825913906098,-0.004860662464052439,0.017435227632522584,13.335718041664222,9.6902490234375,0.18441650390625,-1.0446775817871095,13.335718041664222,0.00016691209748387337,-0.0007935877656564116,-0.0004405840300023556,13.335718041664222
2025-10-06 13:47:42.121424,9.750746655464173,0.18694339642301203,-1.0602452087402345,13.464797958324198,-0.05091638445854187,0.002113457825034857,0.021704718321561813,13.464797958324198,9.706265716552736,0.1933978271484375,-1.0374925231933594,13.464797958324198,0.00026981718838214874,0.0004192069172859192,0.0006156202871352434,13.464797958324198
2025-10-06 13:47:42.241313,9.750813313722611,0.18715301910415294,-1.0595940481871367,13.593876958329929,-0.06475440502166749,0.0004069662094116211,0.017011743038892746,13.593876958329929,9.688452758789063,0.18815872192382813,-1.0445278930664064,13.593876958329929,0.0012760404497385025,-0.001544459257274866,0.0007675939705222845,13.593876958329929
2025-10-06 13:47:42.363941,9.750815067887308,0.18729892540723087,-1.0595317022502422,13.713026958343107,-0.05487845778465271,-0.009319073036313057,0.021290954723954203,13.713026958343107,9.696685638427734,0.17753082275390625,-1.0451266479492187,13.713026958343107,-0.0010507639963179827,0.0004997037467546761,0.0007149830926209688,13.713026958343107
2025-10-06 13:47:42.488644,9.750898683071137,0.18657012479379775,-1.0589017378538848,13.832176958327182,-0.054961488246917725,-0.0015548842772841454,0.01078109622001648,13.832176958327182,9.692045288085938,0.18576370239257814,-1.0424322509765624,13.842105958348839,-0.0021757003851234913,-0.0009039427386596799,-0.000972401350736618,13.832176958327182
2025-10-06 13:47:42.608721,9.750902776122095,0.1863827032595873,-1.0588836845755578,13.961255958332913,-0.06379838526248932,0.00042882017791271213,0.01450591877102852,13.961255958332913,9.68979995727539,0.18681152343750002,-1.0448272705078125,13.961255958332913,-0.000992664135992527,-0.0011855773627758026,-0.0006088651716709137,13.961255958332913
2025-10-06 13:47:42.731631,9.750888158082963,0.18636348053812982,-1.059032276943326,14.080405958346091,-0.061088200807571415,0.0065852804481983185,0.011810206174850464,14.080405958346091,9.68979995727539,0.1922003173828125,-1.0437794494628907,14.080405958346091,-0.0031973826698958874,-2.5458924937993288e-05,0.0005843550898134708,14.080405958346091
2025-10-06 13:47:42.848486,9.750898683071137,0.18660975795239212,-1.0589061963558197,14.199555958330166,-0.05870253682136536,0.008284992948174478,0.021712904423475267,14.199555958330166,9.691296844482423,0.18905685424804688,-1.0383906555175781,14.199555958330166,-0.0009741364046931267,0.00037018570583313704,0.0006598564796149731,14.199555958330166
2025-10-06 13:47:42.983340,9.750891081690789,0.18714390110224485,-1.0588564219325782,14.328634958335897,-0.059146340489387515,-0.0007814986445009709,0.006694038659334183,14.328634958335897,9.692943420410156,0.19070343017578126,-1.0470726013183593,14.328634958335897,0.0003909710794687271,-0.0028192787431180477,-0.0018075578846037388,14.328634958335897
2025-10-06 13:47:43.111894,9.75082091510296,0.18728109139949084,-1.0594919411838055,14.45771470834734,-0.06715819537639618,-0.0028646057657897473,0.017808279991149905,14.45771470834734,9.68441116333008,0.18441650390625,-1.0412347412109375,14.45771470834734,0.0009602783247828484,-0.0006959811435081065,-0.0008560679852962494,14.45771470834734
2025-10-06 13:47:43.236229,9.750819160938264,0.18709452867507936,-1.0595393036305905,14.576864708331414,-0.061168892383575445,0.00016604265198111534,0.011418442726135255,14.576864708331414,9.697284393310547,0.18830841064453127,-1.0475216674804688,14.586793708323967,0.0005541774444282055,0.0006982832564972341,-0.0031459047459065914,14.576864708331414
2025-10-06 13:47:43.367353,9.75082442343235,0.18718654923141004,-1.0594686254113914,14.715872708329698,-0.05159524619579316,-0.0038179211877286436,0.010749667435884477,14.715872708329698,9.699080657958985,0.18142272949218752,-1.0487191772460938,14.715872708329698,-0.0008675758726894855,-0.0007661383715458214,-0.0007056137546896935,14.715872708329698
2025-10-06 13:47:43.491094,9.750901606678964,0.18717138301581146,-1.0587612584978343,14.835022708342876,-0.05541406273841858,0.00398105850443244,0.013484921827912331,14.835022708342876,9.694739685058595,0.18890716552734377,-1.0385403442382812,14.835022708342876,0.0007044668309390545,0.0016420173924416304,-0.002192349173128605,14.835022708342876
2025-10-06 13:47:43.649632,9.75093902885914,0.18718839475885035,-1.0584113026410342,14.97403070834116,-0.05919370293617249,0.001269686333835125,0.0102911726385355,14.97403070834116,9.69264404296875,0.18291961669921875,-1.050216064453125,14.97403070834116,0.0002629505470395088,-0.0005373904714360833,0.0010687208268791437,14.97403070834116
2025-10-06 13:47:43.798141,9.75097703576088,0.18629141360521317,-1.0582370556145908,15.122968708339613,-0.05473929405212403,-0.004419563133269549,0.017750831097364427,15.122968708339613,9.695637817382813,0.1826202392578125,-1.042881317138672,15.122968708339613,0.0015977662988007069,0.0012692490126937628,0.00046494463458657265,15.122968708339613
2025-10-06 13:47:43.925564,9.751017381548882,0.18632041214033962,-1.0578456576168538,15.27190570833045,-0.0501410436630249,-0.0014548786170780659,0.011222049370408058,15.27190570833045,9.695338439941407,0.1850152587890625,-1.0440788269042969,15.27190570833045,0.0008395989425480366,-0.0004865159862674773,-0.0013695093803107738,15.27190570833045
2025-10-06 13:47:44.047652,9.751027906537056,0.18720564404502513,-1.0576127191632987,15.400985708343796,-0.05748456180095673,0.0025996538065373898,0.013982885330915452,15.400985708343796,9.694889373779297,0.19115249633789064,-1.0437794494628907,15.400985708343796,0.0014502168633043766,-0.0009069675579667091,0.0007181926630437374,15.400985708343796
2025-10-06 13:47:44.177317,9.751029660701752,0.1866916920617223,-1.0576766730844975,15.53006583332899,-0.06018188238143921,0.005209266152232886,0.008359179496765137,15.53006583332899,9.690099334716797,0.195194091796875,-1.0473719787597657,15.53006583332899,0.0029297741129994392,0.0013490248238667846,0.0015145917423069477,15.53006583332899
2025-10-06 13:47:44.299638,9.751022059321404,0.1868813063018024,-1.0577095636725427,15.649215833342168,-0.04984575927257538,7.990585640072823e-05,0.011834764480590822,15.649215833342168,9.701625366210939,0.18636245727539064,-1.0461744689941406,15.649215833342168,-0.003171829739585519,-0.0008151291985996068,-0.0024514351971447468,15.649215833342168
2025-10-06 13:47:44.431900,9.751041939854622,0.18706468960270287,-1.0574842265993358,15.7782948333479,-0.06214069962501526,-0.00833637535572052,0.011908512488007545,15.7782948333479,9.689500579833984,0.18112335205078126,-1.0469229125976562,15.7782948333479,-9.558303281664848e-05,0.0005149680655449629,-0.0021195178851485252,15.7782948333479
2025-10-06 13:47:44.559193,9.75101504266262,0.18731434743851424,-1.0576975037902594,15.907373833324527,-0.0616641515493393,0.0035387714579701427,0.01137283444404602,15.907373833324527,9.68830307006836,0.19130218505859375,-1.0422825622558594,15.907373833324527,0.0010645249858498573,0.0007639845134690404,-0.001375709194689989,15.907373833324527
2025-10-06 13:47:44.683022,9.751053049564362,0.1873658577539027,-1.057335707321763,16.026523833337706,-0.06559406518936158,-0.002051221523433924,0.001581087112426758,16.026523833337706,9.687704315185547,0.1866618347167969,-1.051263885498047,16.026523833337706,0.0038424264639616013,0.00290328124538064,-5.197431892156601e-05,16.026523833337706
2025-10-06 13:47:44.801287,9.751051295399666,0.18736015671864154,-1.0573475479334593,16.145673833350884,-0.0663413393497467,0.0039062324166297914,0.019256123676896095,16.145673833350884,9.6902490234375,0.19369720458984377,-1.043031005859375,16.155602833343437,0.002549111843109131,-0.0010105206165462732,-0.0029476513154804707,16.155602833343437
2025-10-06 13:47:44.945206,9.7510372620821,0.18723590338602664,-1.0574947515875102,16.294611833349336,-0.05884345471858979,0.002419650927186012,0.007578137665987015,16.294611833349336,9.693691864013672,0.1872605895996094,-1.04662353515625,16.294611833349336,0.0007094736211001873,-0.0005389687139540911,-0.0006324965506792068,16.294611833349336
2025-10-06 13:47:45.070047,9.751013288497925,0.18730824440717697,-1.0577263744175434,16.41376183333341,-0.055673679113388067,-0.00034697743132710456,0.006462196558713914,16.41376183333341,9.692494354248048,0.1886077880859375,-1.051263885498047,16.41376183333341,0.0010768566280603409,-0.001848126295953989,-0.0009707859717309475,16.41376183333341
2025-10-06 13:47:45.197272,9.751029075980187,0.18719871874898672,-1.0575931309908628,16.542840541660553,-0.055990013480186465,0.000510937012732029,0.01905256748199463,16.542840541660553,9.69548812866211,0.188009033203125,-1.0434800720214845,16.542840541660553,-0.001484036911278963,-0.0018735036719590425,-0.00034826062619686127,16.542840541660553
2025-10-06 13:47:45.320550,9.75106942176819,0.18748780874535442,-1.0571769554167987,16.671919541666284,-0.06231611609458924,0.003814412858337164,0.014744192808866501,16.671919541666284,9.687704315185547,0.19070343017578126,-1.0394384765625,16.671919541666284,4.514958709478378e-05,-0.00048698775935918093,0.0009017651900649071,16.671919541666284
2025-10-06 13:47:45.445817,9.751067667603493,0.18715499253943563,-1.0572428827732803,16.791069541679462,-0.06441117346286775,-0.004235375840216876,0.015409752130508424,16.791069541679462,9.68979995727539,0.18456619262695315,-1.0454260253906251,16.791069541679462,0.001634316984564066,-0.00026865926338359714,0.0018569636158645153,16.791069541679462
2025-10-06 13:47:45.565862,9.751075853705407,0.18694970045238735,-1.0572135005146266,16.920148541685194,-0.06426850140094757,0.00674755895510316,0.019272276610136033,16.920148541685194,9.692494354248048,0.1920506286621094,-1.036893768310547,16.920148541685194,0.0019792011007666588,0.0006819715490564704,-0.001343707088381052,16.920148541685194
2025-10-06 13:47:45.686779,9.751044278740883,0.18721649793908002,-1.0574489971250296,17.039298541669268,-0.05346050798892975,0.0007925352640450001,0.02280063271522522,17.039298541669268,9.695637817382813,0.18561401367187502,-1.0338999938964843,17.039298541669268,-0.0010656011290848255,-0.0014231695095077157,-0.001337637659162283,17.039298541669268
2025-10-06 13:47:45.805303,9.751031414866448,0.18715839123353364,-1.0575688650459052,17.158448541682446,-0.06048359870910645,-0.005735643468797207,0.01573493041098118,17.158448541682446,9.686057739257812,0.18037490844726564,-1.0398875427246095,17.158448541682446,-0.0010384530760347843,-0.0021352290641516447,-0.0001359446905553341,17.158448541682446
2025-10-06 13:47:45.945152,9.751060066223145,0.18699989514425397,-1.0573511293530464,17.28752854166669,-0.05497201323509217,0.00041036490350961687,0.008781202286481857,17.28752854166669,9.69593719482422,0.18830841064453127,-1.0515632629394531,17.29745754165924,0.0002752188593149185,0.002314717508852482,0.0015314794145524502,17.29745754165924
2025-10-06 13:47:46.075096,9.751016212105752,0.1867582406848669,-1.0577770990133286,17.41660754167242,-0.051487072706222534,0.003346416335552931,0.0056157390028238295,17.41660754167242,9.697583770751953,0.19160156250000002,-1.0535092163085937,17.41660754167242,0.0006531211547553539,-0.00013935778406448662,0.00028965575620532036,17.41660754167242
2025-10-06 13:47:46.197052,9.750963587164879,0.18639236943796278,-1.058333169221878,17.545685916673392,-0.06310958325862885,-0.0006287035904824735,0.015302163362503052,17.545685916673392,9.68875213623047,0.1933978271484375,-1.0443782043457033,17.545685916673392,-0.0006634513847529888,0.0008338831830769777,0.001493409974500537,17.545685916673392
2025-10-06 13:47:46.324586,9.750978789925576,0.18620820041745903,-1.0582236801087856,17.674764916679123,-0.051449650526046754,0.00030390903353691103,0.00920475997030735,17.674764916679123,9.704469451904297,0.1886077880859375,-1.044228515625,17.674764916679123,-0.0005077174864709377,-0.0010627834126353264,0.00041679805144667625,17.674764916679123
2025-10-06 13:47:46.485385,9.751032584309579,0.18714766524732113,-1.0575762471556664,17.823702916677576,-0.060932080149650576,-0.001383981127291918,0.01888636037707329,17.823702916677576,9.690099334716797,0.18576370239257814,-1.0397378540039064,17.823702916677576,-0.0008488604798913002,0.0002650665119290352,0.0008635497651994228,17.823702916677576
2025-10-06 13:47:46.606684,9.751065913438797,0.18678418770432473,-1.0573260594159366,17.952781916683307,-0.055278407335281374,-0.0022179585322737697,0.024923171997070313,17.952781916683307,9.695637817382813,0.18232086181640625,-1.0346484375,17.952781916683307,0.0003616861067712307,0.00209307624027133,-0.0003860420547425747,17.952781916683307
2025-10-06 13:47:46.751062,9.751054219007493,0.18720297625288368,-1.0573487904667855,18.101718916674145,-0.05451885402202607,0.0011053978465497495,0.022101378813385964,18.101718916674145,9.695338439941407,0.18830841064453127,-1.0340496826171877,18.101718916674145,0.0009404714219272137,0.0011757096508517861,-0.004592292010784149,18.101718916674145
2025-10-06 13:47:46.870035,9.75108637869358,0.1871407947689295,-1.0570740444213151,18.22086891665822,-0.054999495148658754,0.0053588635101914405,0.012396097183227539,18.22086891665822,9.698182525634767,0.19384689331054689,-1.0422825622558594,18.22086891665822,0.0015255557373166084,-0.00046394241508096457,0.0015064568724483252,18.22086891665822
2025-10-06 13:47:47.016336,9.75110742866993,0.18636117819696665,-1.0570034392923118,18.36980691665667,-0.06594840645790101,0.000899374857544899,0.01038005031645298,18.36980691665667,9.680070190429689,0.18681152343750002,-1.0454260253906251,18.36980691665667,0.0030066026374697685,-0.0008288983372040093,-0.0013550142757594585,18.36980691665667
2025-10-06 13:47:47.166859,9.751169993877411,0.18667656239122155,-1.0563857540488244,18.50881516665686,-0.06586069822311402,-0.0034575499780476093,0.01769601345062256,18.50881516665686,9.689500579833984,0.18291961669921875,-1.0421328735351563,18.50881516665686,0.000832852441817522,-0.0017592873191460967,-0.0006265733391046524,18.50881516665686
2025-10-06 13:47:47.297429,9.751129063367845,0.1874622454494238,-1.056613064557314,18.63789416666259,-0.06028186976909638,-0.00394387386739254,0.018970779553055764,18.63789416666259,9.692793731689454,0.1836680603027344,-1.044228515625,18.63789416666259,0.0015291590243577957,-0.0010955415200442076,0.0005280333571135998,18.63789416666259
2025-10-06 13:47:47.423821,9.751133741140366,0.18728633562102914,-1.05662154302001,18.766974166675936,-0.057141330242156986,-0.004666059818118811,0.013440263718366624,18.766974166675936,9.69309310913086,0.1884580993652344,-1.0422825622558594,18.766974166675936,-0.0008060415275394917,-0.0009590627159923315,-0.0015788101591169834,18.766974166675936
2025-10-06 13:47:47.545864,9.751147189736367,0.18772279372438788,-1.056406657844782,18.896053166681668,-0.05715594828128815,0.0005855986475944519,0.016070487499237063,18.896053166681668,9.69069808959961,0.19504440307617188,-1.0424322509765624,18.896053166681668,-0.0007119500078260899,-0.0009913734393194318,-0.00010706344619393349,18.896053166681668
2025-10-06 13:47:47.668347,9.751068837046624,0.18752369603142144,-1.0571519585698843,19.015203166665742,-0.05947436928749085,-0.003855708818882704,0.018013151809573174,19.015203166665742,9.688901824951172,0.1886077880859375,-1.043031005859375,19.015203166665742,0.002395092975348234,-0.0009578330791555345,-0.002441877033561468,19.015203166665742
2025-10-06 13:47:47.801415,9.75104837179184,0.18715016858652236,-1.0574210035800935,19.144282166671474,-0.05346460103988648,0.007145772613584995,0.01723408341407776,19.144282166671474,9.69698501586914,0.19504440307617188,-1.0439291381835938,19.144282166671474,-0.001153082586824894,0.0018487367779016495,-0.0022466941736638546,19.144282166671474
2025-10-06 13:47:47.946767,9.751081116199494,0.18766766544431449,-1.0570208347588779,19.29321916666231,-0.06816742479801179,-0.0005567645654082298,0.013391366377472878,19.29321916666231,9.686955871582033,0.18935623168945315,-1.041534118652344,19.29321916666231,-0.0014606183394789696,0.0014353052247315645,0.0014904430136084557,19.29321916666231
2025-10-06 13:47:48.069053,9.751017381548882,0.187848910856992,-1.0575810711085798,19.41236916667549,-0.06166649043560028,-0.0034324434958398343,0.011107370853424073,19.41236916667549,9.687854003906251,0.18546432495117188,-1.0400372314453126,19.41236916667549,0.0014362772926688194,-0.0022219899110496044,0.001509596360847354,19.41236916667549
2025-10-06 13:47:48.190304,9.751043694019318,0.18759170645847917,-1.0573919136822225,19.54144916665973,-0.059146925210952765,-0.0066179883107543,0.02139598533511162,19.54144916665973,9.69159622192383,0.18396743774414062,-1.0349478149414062,19.54144916665973,0.0018915170803666115,-0.0006537691806443036,0.0017354120500385761,19.54144916665973
2025-10-06 13:47:48.323793,9.75107409954071,0.18759115828201176,-1.0570991874486209,19.670528166665463,-0.052592781186103825,-0.0018274741619825365,0.00658403791487217,19.670528166665463,9.693841552734375,0.18606307983398437,-1.0472222900390626,19.670528166665463,-0.00013599731028079987,-0.00031672153272666037,0.0018192091956734657,19.670528166665463
2025-10-06 13:47:48.447472,9.751040185689927,0.18750759791582824,-1.0574303591251373,19.799607166671194,-0.05704894423484803,-0.000546367485076189,0.01829126000404358,19.799607166671194,9.692793731689454,0.18681152343750002,-1.043031005859375,19.799607166671194,0.0006653065793216228,0.0007498733466491103,0.002145808655768633,19.799607166671194
2025-10-06 13:47:48.572775,9.751057142615318,0.1872513071447611,-1.0573199198395014,19.918757166684372,-0.060508741736412054,-0.0022360849007964138,0.018181332349777223,19.918757166684372,9.692194976806642,0.1872605895996094,-1.04183349609375,19.918757166684372,0.0005098707042634487,-0.0007560751400887966,-0.0003440980799496174,19.918757166684372
2025-10-06 13:47:48.693684,9.751089887022973,0.18682756673544645,-1.057095752209425,20.047836166661,-0.05560175836086274,0.000732400305569172,0.010771740674972535,20.047836166661,9.695637817382813,0.18606307983398437,-1.0458750915527344,20.047836166661,0.00040510576218366623,-0.001192925963550806,0.0009538738522678614,20.047836166661
2025-10-06 13:47:48.812933,9.751070006489755,0.18725810453295708,-1.0571988824754954,20.157057166681625,-0.0504924613237381,0.0017987314425408842,0.015365313291549684,20.157057166681625,9.70417007446289,0.19399658203125,-1.0436297607421876,20.157057166681625,3.208033740520477e-05,-0.002003028988838196,-0.0005518118850886822,20.157057166681625
2025-10-06 13:47:48.933038,9.751066498160363,0.1873733129538596,-1.0572209557145835,20.286136166658252,-0.061265371441841125,0.0025816736184060573,0.008950771540403366,20.286136166658252,9.690997467041017,0.18546432495117188,-1.045276336669922,20.286136166658252,-0.0006484836339950562,-0.0007024456281214952,-0.0023747985251247883,20.286136166658252
2025-10-06 13:47:49.067463,9.751025567650796,0.18820115078240635,-1.0574532363563776,20.415215166663984,-0.06092506349086762,-0.006628714296966791,0.019062946289777758,20.415215166663984,9.687854003906251,0.18291961669921875,-1.0437794494628907,20.415215166663984,0.0016007586382329464,0.00046484568156301975,-0.0011626710183918476,20.415215166663984
2025-10-06 13:47:49.188363,9.751057727336883,0.1887623738497496,-1.0570555526018144,20.534365166677162,-0.06065784573554993,-0.004345869943499565,0.013425060957670213,20.534365166677162,9.689650268554688,0.18516494750976564,-1.041534118652344,20.534365166677162,-0.0015093213878571987,-0.0020639558788388968,0.004061609972268343,20.534365166677162
2025-10-06 13:47:49.305781,9.751081116199494,0.18880617314949633,-1.056819690540433,20.653515166661236,-0.06083209276199341,-0.001994631439447403,0.011842950582504274,20.653515166661236,9.696236572265626,0.18456619262695315,-1.0425819396972658,20.653515166661236,-0.00024825194850564003,0.0008871676400303841,-0.0007496578618884087,20.653515166661236
2025-10-06 13:47:49.427153,9.751068252325059,0.18884651893749835,-1.0569338574260474,20.772665166674415,-0.05363417029380799,0.004551289938390255,0.010010433197021485,20.772665166674415,9.698930969238281,0.19354751586914062,-1.038091278076172,20.772665166674415,-0.0010867491364479065,-0.0014921518741175532,0.001666253199800849,20.772665166674415
2025-10-06 13:47:49.541926,9.751057142615318,0.1887675084359944,-1.057045831605792,20.89181516665849,-0.062455279827117925,0.0038818751089274885,0.01326623596251011,20.89181516665849,9.68830307006836,0.1922003173828125,-1.0437794494628907,20.89181516665849,-0.0013595575001090765,0.0008224142366088927,0.0006412335205823183,20.89181516665849
2025-10-06 13:47:50.726564,9.75116414666176,0.18900307813659312,-1.0560254924744368,22.07338583332603,-0.06360952019691468,0.0009519084356725216,0.018233957290649416,22.07338583332603,9.689350891113282,0.18875747680664062,-1.038240966796875,22.07338583332603,-0.0011943741701543331,-0.0007692929357290268,0.0004895117599517107,22.07338583332603
2025-10-06 13:47:50.848559,9.751168239712715,0.18904996549710631,-1.0559668741375208,22.202465833339375,-0.05208816647529602,-0.010171944256871939,0.009942678585648537,22.202465833339375,9.696086883544922,0.183218994140625,-1.042881317138672,22.202465833339375,-0.0026307073421776295,-4.858366446569562e-05,0.0014617876149713993,22.202465833339375
2025-10-06 13:47:51.028134,9.75119981467724,0.18965456759557128,-1.055581834986806,22.371261833352037,-0.05960242331027985,-0.00014862891286611559,0.011502496451139451,22.371261833352037,9.692494354248048,0.195194091796875,-1.043031005859375,22.371261833352037,-0.0035968853626400232,0.0013660278636962175,-0.0015191626735031605,22.371261833352037
2025-10-06 13:47:51.152439,9.75122437298298,0.19009886462241413,-1.0552634540945292,22.500340916682035,-0.05259336590766907,-0.0031376524642109872,0.013130580559372903,22.500340916682035,9.698481903076173,0.19235000610351563,-1.041683807373047,22.500340916682035,-0.0015727521385997534,-0.0012745318235829473,-0.0018510953523218632,22.500340916682035
2025-10-06 13:47:51.336043,9.751232559084892,0.19096242528408766,-1.055028834566474,22.679065916658146,-0.06173314869403839,-0.0007080612704157829,0.012596218138933182,22.679065916658146,9.689350891113282,0.19010467529296876,-1.0454260253906251,22.679065916658146,-0.00018511665984988213,-0.0007292155059985816,0.00032341061159968376,22.679065916658146
2025-10-06 13:47:51.458405,9.751197475790978,0.1916388567723334,-1.0552345103770495,22.808144916663878,-0.061398103237152106,-0.006623616255819798,0.011454768553376198,22.808144916663878,9.68979995727539,0.17962646484375,-1.039288787841797,22.808144916663878,-0.0009747063741087914,-0.0017555541126057506,-0.0011080293916165829,22.808144916663878
2025-10-06 13:47:51.645461,9.751229635477067,0.1916288068704307,-1.0549604952335359,22.986869916669093,-0.06322360396385193,-0.0031706161424517633,0.00683985359966755,22.986869916669093,9.692943420410156,0.18711090087890625,-1.0451266479492187,22.986869916669093,0.0002979664131999016,0.0002776612527668476,0.0013140796218067408,22.986869916669093
2025-10-06 13:47:51.768157,9.751279336810112,0.19174284584820273,-1.0544521529227495,23.115948916674824,-0.061630237698554996,-0.015110191963613033,0.012917814999818802,23.115948916674824,9.689201202392578,0.17633331298828125,-1.042881317138672,23.115948916674824,0.000247979536652565,0.0010356573620811105,-0.0005274154245853424,23.115948916674824
2025-10-06 13:47:51.944939,9.751302725672723,0.1915845142118633,-1.0542680387198926,23.29467391668004,-0.05731206893920899,-0.008365538343787194,0.013781960383057595,23.29467391668004,9.695637817382813,0.18217117309570313,-1.0421328735351563,23.29467391668004,0.0006923102773725986,0.000691843219101429,0.0023318922612816095,23.29467391668004
2025-10-06 13:47:52.059711,9.751337224245072,0.19121776588261127,-1.0540321766585112,23.413823916664114,-0.057943568229675294,0.0014316542074084282,0.01953306242823601,23.413823916664114,9.692943420410156,0.195194091796875,-1.0364447021484375,23.413823916664114,-0.0004830900579690933,0.002145168138667941,-0.0003038039430975914,23.413823916664114
2025-10-06 13:47:52.248130,9.75138166308403,0.1913447966426611,-1.0535800407081843,23.54290445832885,-0.06322886645793915,-0.0021382902190089227,0.01803405560553074,23.54290445832885,9.6902490234375,0.19055374145507814,-1.0336006164550782,23.54290445832885,0.00029724230989813805,0.0007693308289162815,0.00037902267649769783,23.54290445832885
2025-10-06 13:47:52.383634,9.75139160335064,0.1913767370581627,-1.0534902128577233,23.731558458326617,-0.05949600398540497,0.0011229577660560608,0.009411678314208985,23.731558458326617,9.68830307006836,0.19025436401367188,-1.042881317138672,23.731558458326617,0.0010461700148880482,-0.0005031643086113036,-0.0008632098324596882,23.731558458326617
2025-10-06 13:47:52.558014,9.75135710477829,0.1916945149563253,-1.053752752840519,23.850708458339795,-0.057216174602508545,-0.007577370218932629,0.011619586944580079,23.850708458339795,9.689949645996094,0.18546432495117188,-1.0458750915527344,23.850708458339795,8.324999362230301e-05,-0.002687291242182255,0.0023286466021090746,23.850708458339795
2025-10-06 13:47:52.683703,9.751347164511682,0.19115865418687464,-1.0539560897648335,24.02943345834501,-0.06334230244159698,-0.006742168553173542,0.008529772013425828,24.02943345834501,9.688003692626953,0.1850152587890625,-1.045276336669922,24.02943345834501,-0.0008009136654436588,0.0007897394243627787,0.0015833645593374968,24.02943345834501
2025-10-06 13:47:52.873383,9.751347164511682,0.19176775133237245,-1.0538265739381314,24.21808745834278,-0.06334405660629273,-0.00959661478176713,0.010196447744965554,24.21808745834278,9.687105560302735,0.18471588134765626,-1.0437794494628907,24.21808745834278,2.1746382117271423e-07,-0.0003988306852988899,-0.002274083439260721,24.21808745834278
2025-10-06 13:47:53.008040,9.751435457468034,0.1914513804204762,-1.0530804692208768,24.357095458341064,-0.051305809020996095,4.750862717628479e-07,0.02157491013407707,24.357095458341064,9.695637817382813,0.18890716552734377,-1.0346484375,24.357095458341064,0.0005647987127304077,0.00018177932361140847,-0.0016051665879786015,24.357095458341064
2025-10-06 13:47:53.209148,9.751433703303338,0.1910457663796842,-1.0531637920439243,24.55567979166517,-0.0539996212720871,-0.0028870627284049988,0.015522018671035767,24.55567979166517,9.694889373779297,0.18591339111328126,-1.0434800720214845,24.55567979166517,0.0021436489187180996,-0.0007111858576536179,-0.0013433890417218208,24.55567979166517
2025-10-06 13:47:53.334695,9.751451244950294,0.19137501943856478,-1.0529440098255873,24.6847587916709,-0.056411013007164,-0.0029169200733304024,0.01051197811961174,24.6847587916709,9.698481903076173,0.1926493835449219,-1.047821044921875,24.6847587916709,3.5497359931468964e-05,0.002275733044371009,-0.0015320670790970325,24.6847587916709
2025-10-06 13:47:53.492248,9.751448321342469,0.19117650646716358,-1.0530091331899167,24.843625791661907,-0.06224594950675965,-0.004215276036411524,0.025245792120695117,24.843625791661907,9.694440307617189,0.18755996704101563,-1.0330018615722656,24.843625791661907,0.0006049950607120991,0.0009167543612420559,7.979758083820343e-05,24.843625791661907
2025-10-06 13:47:53.640293,9.7514629393816,0.19112168882042171,-1.0528799828141928,24.98263379166019,-0.05881889641284943,3.080751746892929e-05,0.008501851558685302,24.98263379166019,9.689949645996094,0.18965560913085938,-1.0446775817871095,24.98263379166019,-0.0006229165010154247,0.001193357864394784,-0.0022245915606617928,24.98263379166019
2025-10-06 13:47:53.799847,9.751592162847519,0.19079013342037798,-1.051750373840332,25.1415007916803,-0.05789912939071656,-0.0014339017309248448,0.01350926086306572,25.1415007916803,9.688602447509766,0.1898052978515625,-1.0377919006347658,25.1415007916803,0.0007499041967093945,-0.0010227886959910393,0.001117105595767498,25.1415007916803
2025-10-06 13:47:53.921235,9.751612043380737,0.1909502740390599,-1.051526352390647,25.270579791656928,-0.051483564376831055,0.0005015997402369976,0.0007110214233398438,25.270579791656928,9.696835327148438,0.19040405273437502,-1.0440788269042969,25.270579791656928,-0.0012785482686012983,-0.0019418323645368218,0.0026555657386779785,25.270579791656928
2025-10-06 13:47:54.105694,9.751622568368912,0.19036425512284041,-1.0515273756533863,25.449304791662144,-0.05867973268032074,0.0022850736044347287,0.005801680460572243,25.449304791662144,9.694440307617189,0.19190093994140625,-1.0484197998046876,25.449304791662144,0.003064403310418129,0.0007284844759851694,0.0028484088834375143,25.449304791662144
2025-10-06 13:47:54.237300,9.751624322533608,0.19043856957927346,-1.0515186779201031,25.588312166684773,-0.06227226197719574,-0.012608314566314222,0.005194520205259324,25.588312166684773,9.68830307006836,0.18426681518554688,-1.04662353515625,25.588312166684773,0.0007577496580779552,0.0007015056326054037,9.510433301329613e-05,25.588312166684773
2025-10-06 13:47:54.413862,9.751629585027695,0.19029788922518492,-1.0514780397713186,25.767037166660884,-0.050303596258163455,0.006243382785469294,0.008746265172958375,25.767037166660884,9.69788314819336,0.19444564819335938,-1.042881317138672,25.767037166660884,-0.00130288559012115,0.0021313137840479612,0.00021135574206709862,25.767037166660884
2025-10-06 13:47:54.538502,9.751634262800216,0.19009628819301724,-1.0514805979281665,25.886187166674063,-0.06318033456802369,0.007043793518096209,0.0090478353202343,25.886187166674063,9.687854003906251,0.19249969482421875,-1.0388397216796876,25.886187166674063,0.000675874762237072,0.000474648957606405,-0.00038709165528416634,25.886187166674063
2025-10-06 13:47:54.729863,9.75166466832161,0.19008362531661988,-1.0511911607533695,26.074842166679446,-0.052584010362625125,-0.004020563755184412,0.023278934955596926,26.074842166679446,9.699679412841798,0.18172210693359375,-1.035845947265625,26.074842166679446,0.002058859448879957,-0.00023937117657624185,-0.0009980485774576664,26.074842166679446
2025-10-06 13:47:54.860204,9.751669930815698,0.1901637687161565,-1.0511386819928885,26.203921166685177,-0.053336547017097474,0.006676899008452893,0.011700132340192796,26.203921166685177,9.696386260986328,0.19654129028320313,-1.0373428344726563,26.203921166685177,-0.0007912167347967625,-6.793433567509055e-05,-0.002903238870203495,26.203921166685177
2025-10-06 13:47:55.031890,9.75160444200039,0.19036447439342738,-1.051713682562113,26.372717166668735,-0.05641452133655549,-0.0034032256901264193,0.019011490792036057,26.372717166668735,9.6998291015625,0.18696121215820313,-1.033151550292969,26.372717166668735,0.002291540615260601,0.00014372117584571242,-0.002244396600872278,26.372717166668735
2025-10-06 13:47:55.154525,9.751562342047691,0.1900213159248233,-1.052161506190896,26.501796166674467,-0.0580189973115921,-0.002012246176600456,0.0004489199817180634,26.501796166674467,9.692045288085938,0.1884580993652344,-1.0518626403808595,26.501796166674467,0.0004774080589413643,0.0008329758420586586,0.000508677214384079,26.501796166674467
2025-10-06 13:47:55.327129,9.751586315631867,0.18919694988057018,-1.0520941170305014,26.680521166679682,-0.061036745309829714,-0.0010381914116442204,0.007117084711790085,26.680521166679682,9.692344665527344,0.18935623168945315,-1.0445278930664064,26.680521166679682,0.0010270238853991032,0.00026790372794494033,0.00086248479783535,26.680521166679682
2025-10-06 13:47:55.455951,9.751579298973084,0.18963322525843979,-1.0520813993364573,26.799671166663757,-0.060131596326828005,-0.007462070435285568,0.023270602673292163,26.799671166663757,9.689500579833984,0.18561401367187502,-1.0306068420410157,26.799671166663757,0.0011030049063265324,-0.0008524180157110095,-0.0020887325517833233,26.799671166663757
2025-10-06 13:47:55.591610,9.751576960086823,0.18949778912588955,-1.0521024493128062,26.93867916666204,-0.05923346400260925,-0.00568004010245204,0.012963423281908035,26.93867916666204,9.689051513671876,0.1818717956542969,-1.0406359863281252,26.93867916666204,-0.00013709114864468575,-0.0030473184306174517,0.0003263126127421856,26.93867916666204
2025-10-06 13:47:55.725865,9.751596255898477,0.18870633194223047,-1.0520754790306093,27.067759166675387,-0.0526652866601944,-0.004439516756683588,0.008146340847015382,27.067759166675387,9.698032836914063,0.18561401367187502,-1.0436297607421876,27.067759166675387,0.0007951385341584682,-0.0009693320607766509,0.0008714282885193825,27.067759166675387
2025-10-06 13:47:55.913466,9.751677532196046,0.18838091611862184,-1.051381122171879,27.246484166680602,-0.06112913131713867,-0.006209724750369788,0.0016138315200805665,27.246484166680602,9.68875213623047,0.18606307983398437,-1.0470726013183593,27.246484166680602,0.00012708734720945358,-0.0016224044375121593,0.0007815684657543898,27.246484166680602
2025-10-06 13:47:56.036071,9.751716708540917,0.18808226957917215,-1.0510855454206467,27.385492166678887,-0.0563770991563797,-0.0035160404071211816,0.00026999518275260925,27.385492166678887,9.693542175292968,0.1838177490234375,-1.0524613952636719,27.385492166678887,-0.0010502692312002182,0.0008745965315029025,0.0012442227452993393,27.385492166678887
2025-10-06 13:47:56.166935,9.751736589074135,0.18794559091329577,-1.050926647335291,27.514571166684618,-0.06582736909389496,0.004404415190219879,0.011039396971464157,27.514571166684618,9.687704315185547,0.1932481384277344,-1.0379415893554689,27.514571166684618,-0.0011208958458155394,0.002161074196919799,-0.00033564493060112,27.514571166684618
2025-10-06 13:47:56.296453,9.751761732101441,0.18833728127181532,-1.0505948178470135,27.643650166661246,-0.06510640740394592,-0.002124549262225628,0.007414415627717972,27.643650166661246,9.689350891113282,0.18591339111328126,-1.0401869201660157,27.643650166661246,-7.143290713429451e-05,0.0011372899170964956,-0.0018356069922447205,27.643650166661246
2025-10-06 13:47:56.431321,9.751816695928573,0.18819172214716673,-1.0501074524223806,27.77273016667459,-0.058425963521003724,-0.004074595682322979,0.006028698608279229,27.77273016667459,9.693392486572266,0.18606307983398437,-1.0424322509765624,27.77273016667459,-0.001958461944013834,0.00015185162192210555,0.0016248857136815786,27.77273016667459
2025-10-06 13:47:56.578774,9.751860550045967,0.1878344572708011,-1.04979199513793,27.92166716666543,-0.06445444285869599,-0.0020707366056740284,0.00017410084605216981,27.92166716666543,9.68590805053711,0.18621276855468752,-1.0467732238769532,27.92166716666543,0.0010185432620346546,0.0006134380237199366,0.0011569836642593145,27.92166716666543
2025-10-06 13:47:56.716055,9.751898556947708,0.1878853097744286,-1.0494046901911498,28.06067616667133,-0.05356751203536988,0.0044646963290870196,0.008469253331422805,28.06067616667133,9.697134704589844,0.19699035644531251,-1.0443782043457033,28.06067616667133,0.0005740146152675152,-0.0017931372858583927,0.001225561834871769,28.06067616667133
2025-10-06 13:47:56.838585,9.751900311112404,0.187794970292598,-1.0494389694929123,28.18975516667706,-0.053865135312080384,-0.003378448113799095,0.007754358127713204,28.18975516667706,9.695039062500001,0.1836680603027344,-1.0470726013183593,28.18975516667706,0.0016331118531525135,0.000232390477322042,0.0006716523785144091,28.18975516667706
2025-10-06 13:47:56.981868,9.751957613825798,0.18720067391172052,-1.048987125903368,28.328763166675344,-0.06290668487548828,0.002454880401492119,0.010297019854187966,28.328763166675344,9.690099334716797,0.19070343017578126,-1.0397378540039064,28.328763166675344,-0.0012475191615521908,0.0015009331982582808,-0.00017635757103562355,28.328763166675344
2025-10-06 13:47:57.106634,9.751886862516404,0.18727080395445228,-1.049638651907444,28.457842291682027,-0.05639873385429382,0.002833889611065388,0.015588676929473877,28.457842291682027,9.690997467041017,0.18950592041015626,-1.0321037292480468,28.457842291682027,0.0006821043789386749,-0.0019754222594201565,0.0018034628592431545,28.457842291682027
2025-10-06 13:47:57.232261,9.751882769465446,0.1874131288379431,-1.0496453031152488,28.5769922916661,-0.0644784164428711,-0.0007512758485972882,0.008111330643296243,28.5769922916661,9.692194976806642,0.1922003173828125,-1.0336006164550782,28.5769922916661,-0.0009394576773047447,0.0009177951142191887,-0.0016747922636568546,28.5769922916661
2025-10-06 13:47:57.359001,9.751929547190667,0.18741179494187238,-1.0492154596745968,28.706072291679448,-0.05704017341136933,-0.00015118706971406937,0.004387750625610352,28.706072291679448,9.693542175292968,0.1866618347167969,-1.0449769592285156,28.706072291679448,-0.0019898356404155493,-0.0007695505046285689,0.0003121006302535534,28.706072291679448
2025-10-06 13:47:57.489290,9.751965215206146,0.18765259059146047,-1.0488248656690122,28.83515129168518,-0.0690526932477951,0.0014042088389396668,0.011930878087878228,28.83515129168518,9.690398712158204,0.18621276855468752,-1.0349478149414062,28.83515129168518,-9.346287697553635e-05,-0.0010600986424833536,0.0016619681846350431,28.83515129168518
2025-10-06 13:47:57.618174,9.751939487457276,0.18777483394369485,-1.0490649669617416,28.964230291661806,-0.05944396376609803,0.0029285779595375062,0.0055851142108440405,28.964230291661806,9.695787506103516,0.1898052978515625,-1.0427316284179688,28.964230291661806,0.0004352540709078312,0.0007996001513674855,-0.0020994758233428,28.964230291661806
2025-10-06 13:47:57.750042,9.751957029104233,0.1881047448143363,-1.0488258889317512,29.093309291667538,-0.06605014801025391,0.0015508094988763333,0.006243803054094315,29.093309291667538,9.683213653564454,0.1945953369140625,-1.0454260253906251,29.093309291667538,0.0001860545016825199,0.00024956552078947425,-0.0034111710265278816,29.093309291667538
2025-10-06 13:47:57.870851,9.751958198547364,0.1879065059311688,-1.0488538824766875,29.222389291680884,-0.05153092682361603,-0.003190661128610373,0.01330716647207737,29.222389291680884,9.697583770751953,0.18591339111328126,-1.0304571533203126,29.222389291680884,0.0002607335336506367,0.0023729545064270496,-0.001842597033828497,29.222389291680884
2025-10-06 13:47:58.009262,9.75196346104145,0.18823329219594598,-1.0487549183517695,29.361397291679168,-0.061415060162544256,0.007409884035587311,0.0054250466823577885,29.361397291679168,9.69069808959961,0.19399658203125,-1.0491682434082032,29.361397291679168,-0.0015090953093022108,-0.0012552418047562242,0.0005332524888217449,29.361397291679168
2025-10-06 13:47:58.137743,9.751954690217973,0.18789387959986925,-1.048902414366603,29.480547541665146,-0.060656676292419436,0.0022108139656484126,-0.0023612518608570102,29.480547541665146,9.691446533203125,0.1884580993652344,-1.047970733642578,29.480547541665146,0.00013955822214484215,-0.0001703966991044581,0.0004126927815377712,29.480547541665146
2025-10-06 13:47:58.261728,9.751821958422662,0.18838038621470332,-1.0500524885952474,29.609626541670877,-0.05962581217288971,-0.0002216460183262825,0.006123058050870896,29.609626541670877,9.695039062500001,0.18351837158203127,-1.0475216674804688,29.609626541670877,-0.00029967864975333214,-0.0006129448302090168,-0.0007129497826099396,29.609626541670877
2025-10-06 13:47:58.399385,9.751797984838486,0.1889021040312946,-1.0501706023514272,29.748635541676776,-0.06663837790489197,-0.006132212597876788,0.011779800653457642,29.748635541676776,9.688153381347657,0.18336868286132812,-1.041683807373047,29.748635541676776,0.0017195888794958591,0.0023323241621255875,0.001816838514059782,29.748635541676776
2025-10-06 13:47:58.522056,9.751783366799355,0.18888969697058203,-1.0502963905781508,29.86778554166085,-0.05854173839092255,-0.006419146433472633,0.0066671414673328405,29.86778554166085,9.696535949707032,0.18411712646484377,-1.0497669982910156,29.86778554166085,-0.0010391874238848686,0.0007468813564628363,-0.0013906336389482021,29.86778554166085
2025-10-06 13:47:58.642988,9.751716708540917,0.1890316015854478,-1.0509087402373554,29.98693554167403,-0.05652795732021332,-0.0010225501097738743,0.0030873298645019533,29.98693554167403,9.693542175292968,0.1884580993652344,-1.0559042358398438,29.98693554167403,-0.00029263924807310104,0.001658007618971169,0.0006070772651582956,29.98693554167403
2025-10-06 13:47:58.770813,9.751699751615524,0.18889696944504977,-1.0510940238833428,30.11601454167976,-0.0560607647895813,-0.0010375884175300599,0.00432094618678093,30.11601454167976,9.696835327148438,0.18486557006835938,-1.0434800720214845,30.11601454167976,0.0008962959982454777,-0.00028695593937300146,-0.0018659960478544235,30.11601454167976
2025-10-06 13:47:58.892296,9.751686303019524,0.18919137675315142,-1.05114219032228,30.245093541656388,-0.06428253471851349,-0.002828937750309706,0.013799575120210648,30.245093541656388,9.689051513671876,0.1898052978515625,-1.0350975036621095,30.245093541656388,0.0015499060973525047,-0.0009811611380428076,0.0001621604897081852,30.245093541656388
2025-10-06 13:47:59.032417,9.751740097403527,0.18878441054373982,-1.0507257954776288,30.384102541662287,-0.06029356420040131,-0.00047598162665963173,0.006647114753723145,30.384102541662287,9.68830307006836,0.18546432495117188,-1.0458750915527344,30.384102541662287,-0.0003771563060581684,0.0005588013445958495,-0.0009968415834009647,30.384102541662287
2025-10-06 13:47:59.173032,9.751672854423523,0.1889991129934788,-1.0513236001878978,30.523110291658668,-0.05573449015617371,0.0018540607206523419,0.015627122372388842,30.523110291658668,9.693392486572266,0.19040405273437502,-1.0403366088867188,30.523110291658668,0.0005742385983467102,-0.0008943189168348908,0.0014969422481954098,30.523110291658668
2025-10-06 13:47:59.293365,9.75163894057274,0.1889337703585625,-1.0516389112919569,30.642260291671846,-0.05285766005516052,0.0037155949138104917,0.004416986703872681,30.642260291671846,9.697733459472657,0.18890716552734377,-1.0482701110839845,30.642260291671846,0.001019456423819065,-0.0004541681846603751,0.001176490681245923,30.642260291671846
2025-10-06 13:47:59.418884,9.751674023866654,0.18900852335616947,-1.051302915662527,30.771339291677577,-0.060826245546340946,-0.010878909174352885,0.0037808096408844,30.771339291677577,9.691745910644531,0.17453704833984376,-1.0427316284179688,30.771339291677577,0.0027230004779994488,-0.0005157229024916887,-0.0003120829351246357,30.771339291677577
2025-10-06 13:47:59.544485,9.751697412729264,0.18888724844902754,-1.051110542267561,30.890489291661652,-0.055460840463638306,0.0018161999993026258,0.010923768281936646,30.890489291661652,9.700128479003906,0.1898052978515625,-1.0434800720214845,30.890489291661652,0.00022059353068470955,0.00322196283377707,0.0001881173811852932,30.890489291661652
2025-10-06 13:47:59.664759,9.751734250187875,0.1881936224922538,-1.0508745340257883,31.019569291674998,-0.059391338825225834,-3.493711352348328e-05,0.012034958526492119,31.019569291674998,9.693542175292968,0.18681152343750002,-1.0355465698242188,31.019569291674998,0.0009347791783511639,0.0001633205101825297,0.0006732274778187275,31.019569291674998
2025-10-06 13:47:59.792822,9.751696828007699,0.1889294580370188,-1.0511016983538866,31.138719291659072,-0.0629446917772293,-0.002716689482331276,0.0133094322681427,31.138719291659072,9.694739685058595,0.19025436401367188,-1.0385403442382812,31.138719291659072,-1.1012423783540726e-05,0.001341257244348526,-0.0008600316941738129,31.138719291659072
2025-10-06 13:47:59.916990,9.751676362752915,0.18920164592564107,-1.051240715906024,31.267798291664803,-0.061427339315414435,0.00808808796107769,0.011352953910827638,31.267798291664803,9.691745910644531,0.19624191284179687,-1.035845947265625,31.267798291664803,0.002044137567281723,0.0009805354056879878,-0.0004158131778240204,31.267798291664803
2025-10-06 13:48:00.051669,9.751629585027695,0.1890669406950474,-1.051701768860221,31.396877291670535,-0.05614145636558533,-0.005249228216707706,0.0038802123069763186,31.396877291670535,9.69593719482422,0.18546432495117188,-1.0469229125976562,31.396877291670535,0.0011210381053388119,0.00028048778767697513,5.469564348459244e-05,31.396877291670535
2025-10-06 13:48:00.175349,9.75169799745083,0.18888315539807082,-1.0510963627696037,31.52595591667341,-0.05755706727504731,-0.0028200938366353514,0.0028265440464019776,31.52595591667341,9.689051513671876,0.18426681518554688,-1.0410850524902344,31.52595591667341,-0.0016184551641345024,-0.00217834091745317,0.0022033255081623793,31.52595591667341
2025-10-06 13:48:00.307794,9.751691565513612,0.18906142238527537,-1.0511314460635186,31.655034916679142,-0.06009534358978272,-0.000603304747492075,0.006304467916488647,31.655034916679142,9.696386260986328,0.18965560913085938,-1.0485694885253907,31.655034916679142,-2.4425331503152847e-05,0.0011096911039203405,0.0002282313071191311,31.655034916679142
2025-10-06 13:48:00.425864,9.751707937717438,0.1891640958376229,-1.050969332009554,31.77418591667083,-0.061158367395401,0.0004915681108832359,-0.0016420443356037141,31.77418591667083,9.692793731689454,0.18950592041015626,-1.051263885498047,31.77418591667083,-0.0005655423738062382,-0.00154917873442173,0.00031841639429330826,31.77418591667083
2025-10-06 13:48:00.547596,9.751681625247002,0.18986316701397302,-1.0510792596638203,31.89333591668401,-0.06263011157512666,-0.0008063127659261227,0.010892193317413331,31.89333591668401,9.689350891113282,0.188009033203125,-1.039288787841797,31.89333591668401,-0.0022784399334341288,0.0009823987493291497,-0.0013305521570146084,31.89333591668401
2025-10-06 13:48:00.686269,9.751687472462654,0.189806467294693,-1.0510352593660355,32.032343916682294,-0.05200805962085724,0.00898017207160592,0.012495499849319459,32.032343916682294,9.693841552734375,0.19444564819335938,-1.0362950134277344,32.032343916682294,0.00039582420140504837,0.000333440606482327,0.00109014636836946,32.032343916682294
2025-10-06 13:48:00.812705,9.751665253043175,0.19053541408851743,-1.0511129542440176,32.16142291665892,-0.059619964957237245,-0.0005804275162518025,0.015117391347885133,32.16142291665892,9.686806182861329,0.1878593444824219,-1.036893768310547,32.16142291665892,0.0005736243911087513,-0.0006276621716096997,-0.0011776098981499672,32.16142291665892
2025-10-06 13:48:00.934154,9.751683964133264,0.191343755107373,-1.0507732310146094,32.2805729166721,-0.05799326956272126,-4.157004877924919e-05,-0.0003413312137126923,32.2805729166721,9.693392486572266,0.188009033203125,-1.0515632629394531,32.2805729166721,-0.0012778348755091429,-0.0005683956551365554,0.0011135975364595652,32.2805729166721
2025-10-06 13:48:01.056150,9.751667591929436,0.19103376131504776,-1.0509967408329248,32.39972291668528,-0.06351421058177949,-0.006317843422293664,0.012307219505310059,32.39972291668528,9.690099334716797,0.18651214599609375,-1.041534118652344,32.39972291668528,0.0007423418574035168,0.0021281291265040636,0.001007251674309373,32.39972291668528
2025-10-06 13:48:01.176853,9.75170150578022,0.19118228059262038,-1.0506608913838864,32.52880366667523,-0.057110339999198914,-0.006166966985911131,0.006880857199430466,32.52880366667523,9.692793731689454,0.1878593444824219,-1.0412347412109375,32.52880366667523,0.0027803019620478153,0.0014383313246071339,-0.0003037964925169945,32.52880366667523
2025-10-06 13:48:01.310043,9.7517371737957,0.19136513398960234,-1.0502928091585637,32.65788266668096,-0.05071056246757508,-0.0024579684622585774,0.004567844867706299,32.65788266668096,9.69788314819336,0.18815872192382813,-1.0484197998046876,32.65788266668096,0.0003264048136770725,-0.0003470322408247739,0.0009840172715485096,32.65788266668096
2025-10-06 13:48:01.441097,9.751707937717438,0.19147734571248293,-1.0505308639258146,32.78696166665759,-0.06370541453361511,-0.0018217365816235542,0.008846983462572098,32.78696166665759,9.689350891113282,0.19145187377929687,-1.0440788269042969,32.78696166665759,-0.003805757500231266,-0.0009218079503625631,-0.0005903774872422218,32.78696166665759
2025-10-06 13:48:01.573350,9.751755300164223,0.19117893671616912,-1.050142170265317,32.90611166667077,-0.05447207629680634,-0.002271771188825369,0.005015887767076493,32.90611166667077,9.70027816772461,0.18770965576171875,-1.047821044921875,32.90611166667077,0.0019143493846058846,0.0005532853538170457,0.0012873911764472723,32.90611166667077
2025-10-06 13:48:01.694405,9.751741851568223,0.19032962864264846,-1.0504446905851366,33.04512066667667,-0.055504109859466556,-0.0021709067188203338,0.00935890719294548,33.04512066667667,9.692344665527344,0.19085311889648438,-1.0454260253906251,33.04512066667667,-0.00020575150847434998,0.001473723677918315,0.0003547202795743942,33.04512066667667
2025-10-06 13:48:01.820753,9.751763486266137,0.19024917460978033,-1.050239891856909,33.16427066666074,-0.05822189569473267,-0.0002941880375146866,0.006909143105149269,33.16427066666074,9.694589996337891,0.18755996704101563,-1.0425819396972658,33.16427066666074,-0.0007649548351764679,0.0002199028676841408,0.0004751156084239483,33.16427066666074
2025-10-06 13:48:01.943121,9.751780443191528,0.19027004186064006,-1.0500763890892268,33.29334966666647,-0.05734130501747132,0.004175551515072584,0.012734212428331376,33.29334966666647,9.690548400878907,0.19504440307617188,-1.039588165283203,33.29334966666647,-0.0009982972405850887,0.00037933667772449553,-0.0022452478297054768,33.29334966666647
2025-10-06 13:48:02.075049,9.751750622391702,0.19026936577633025,-1.0503446301072836,33.422428666672204,-0.053569850921630864,-0.002410039566457272,0.008212048932909966,33.422428666672204,9.693841552734375,0.18920654296875,-1.0449769592285156,33.422428666672204,-0.0005581723526120186,-0.0009284457191824913,0.000701716635376215,33.422428666672204
2025-10-06 13:48:02.194467,9.751758223772049,0.19055843750014903,-1.0502393802255392,33.541578833333915,-0.060611068010330206,-0.00015438476577401162,0.0064600038528442386,33.541578833333915,9.693242797851562,0.19294876098632813,-1.0455757141113282,33.541578833333915,-0.0018319236114621162,-0.0009746268624439836,-0.0016728737391531467,33.541578833333915
2025-10-06 13:48:02.322860,9.751704429388047,0.1909758190624416,-1.0506701738387347,33.67065883334726,-0.053970969915390014,0.0001766590029001236,0.011530709266662598,33.67065883334726,9.70267318725586,0.1922003173828125,-1.0394384765625,33.67065883334726,7.3219183832407e-05,-0.0007221077685244381,-0.0005327761173248291,33.67065883334726
2025-10-06 13:48:02.451848,9.751681040525437,0.19150979775935412,-1.0507750582695008,33.79973783332389,-0.05544505298137665,-0.005147358756512403,0.014480117931962013,33.79973783332389,9.698631591796875,0.1866618347167969,-1.0367440795898437,33.79973783332389,0.00034097908064723015,-0.001600187737494707,-0.00173201784491539,33.79973783332389
2025-10-06 13:48:02.574665,9.751736589074135,0.19180975992232563,-1.0502140910178424,33.91888783333707,-0.05849379122257233,0.001138964518904686,0.01421808958053589,33.91888783333707,9.692793731689454,0.1922003173828125,-1.0386900329589843,33.91888783333707,0.002662369515746832,0.00027630029944702983,0.000498355133458972,33.91888783333707
2025-10-06 13:48:02.699698,9.751761147379876,0.192105921395123,-1.0499207800626755,34.0479668333428,-0.0682492858171463,-0.003797529023140669,0.020063112527132037,34.0479668333428,9.685009918212891,0.19130218505859375,-1.0327024841308594,34.0479668333428,0.001878436654806137,-0.0003690441371873021,0.00048210518434643745,34.0479668333428
2025-10-06 13:48:02.826762,9.751744190454483,0.1922348890453577,-1.050070176422596,34.17704583334853,-0.05969890236854553,0.001312645096331835,0.0016500842571258545,34.17704583334853,9.686806182861329,0.19025436401367188,-1.0455757141113282,34.17704583334853,0.00034248363226652145,0.0012930274242535233,0.0011940470430999994,34.17704583334853
2025-10-06 13:48:02.947572,9.751716708540917,0.19276013346388937,-1.0502333137392998,34.29619683334022,-0.07179503738880158,-0.011786433588713409,0.010794983357191087,34.29619683334022,9.678124237060548,0.18127304077148437,-1.0401869201660157,34.29619683334022,0.0014584166929125786,0.0020730053074657917,0.0003100791946053505,34.29619683334022
2025-10-06 13:48:03.089862,9.751662914156915,0.19275642413645983,-1.050706645846367,34.4352048333385,-0.05078774571418763,-0.008040561061352492,0.0022876500338315964,34.4352048333385,9.695188751220703,0.18875747680664062,-1.0433303833007812,34.4352048333385,-0.000259951688349247,-0.0021309410221874714,-0.0025409203954041004,34.4352048333385
2025-10-06 13:48:03.208465,9.751619060039522,0.1931925167888403,-1.0510445418208838,34.554354041669285,-0.05897560179233551,-0.012967315334826708,0.000678350105881691,34.554354041669285,9.6902490234375,0.1790277099609375,-1.05141357421875,34.554354041669285,0.0007297424599528313,-3.1681032851338387e-05,0.0006501185707747936,34.554354041669285
2025-10-06 13:48:03.355800,9.75161672115326,0.19289511278271676,-1.051130276620388,34.70329204166774,-0.05627828121185303,-0.002341407872736454,0.01064427137374878,34.70329204166774,9.691147155761719,0.19384689331054689,-1.0434800720214845,34.70329204166774,-0.00166201195679605,-0.0018488802015781403,-0.0004680878482758999,34.70329204166774
2025-10-06 13:48:03.489336,9.75165589749813,0.19256556736305358,-1.0508198625594378,34.83237104167347,-0.05467146635055542,-0.00740063812583685,0.0034475914388895036,34.83237104167347,9.696685638427734,0.1872605895996094,-1.0494676208496094,34.83237104167347,0.0006244722753763199,-0.00023346513626165688,-0.00037766993045806885,34.83237104167347
2025-10-06 13:48:03.620125,9.751639525294305,0.19281356239691377,-1.0509186805039645,34.9614500416792,-0.05959540665149689,-0.008696417659521104,0.004145822077989579,34.9614500416792,9.69548812866211,0.18875747680664062,-1.046473846435547,34.9614500416792,-4.158820956945419e-06,0.0003570127300918102,-0.000277545303106308,34.9614500416792
2025-10-06 13:48:03.745984,9.751631923913957,0.19325241420418024,-1.0509047933667899,35.09052904168493,-0.061384069919586184,-0.007039700467139483,0.00952058270573616,35.09052904168493,9.695188751220703,0.18681152343750002,-1.0404862976074218,35.09052904168493,0.0002128775231540203,-0.0003728565643541515,-0.0008399849757552147,35.09052904168493
2025-10-06 13:48:03.861417,9.751609119772912,0.1932671418786049,-1.0511378780007363,35.20968004167662,-0.05641919910907746,-0.001815268099308014,0.0034660832583904267,35.20968004167662,9.695188751220703,0.18890716552734377,-1.0425819396972658,35.20968004167662,0.0007168897427618504,0.0030447612516582012,0.0010706374887377024,35.20968004167662
2025-10-06 13:48:03.989113,9.751551817059518,0.19336396811529996,-1.0516422003507615,35.33875904168235,-0.05920715153217316,-0.010743747130036355,0.01160555362701416,35.33875904168235,9.694889373779297,0.18576370239257814,-1.0394384765625,35.33875904168235,-0.001993614947423339,0.00013697671238332987,-0.0010571656748652458,35.33875904168235
2025-10-06 13:48:04.115849,9.751579298973084,0.19328630978241565,-1.051405315026641,35.467837791657075,-0.05668992519378662,-0.006774182058870793,0.005081230401992798,35.467837791657075,9.69264404296875,0.188009033203125,-1.0412347412109375,35.467837791657075,0.0003467653878033161,-0.0011714424472302198,0.0009192831348627806,35.467837791657075
2025-10-06 13:48:04.245662,9.751579298973084,0.19279055725783112,-1.051488345488906,35.59691679166281,-0.05609175503253937,0.0025531684421002867,0.003966824188828468,35.59691679166281,9.694290618896485,0.19070343017578126,-1.0457254028320313,35.59691679166281,0.0004952177405357361,0.0003110254183411598,0.0009992476552724838,35.59691679166281
2025-10-06 13:48:04.367030,9.751537783741952,0.19278014190495016,-1.0518819361925125,35.716066791675985,-0.06083969414234162,-0.010459298361092807,0.01394093155860901,35.716066791675985,9.691895599365235,0.18202148437500001,-1.036893768310547,35.716066791675985,-0.0023066140711307526,0.00035669596400111914,-0.00037009455263614655,35.716066791675985
2025-10-06 13:48:04.489035,9.751536614298821,0.19288551969453693,-1.051868926137686,35.835217791667674,-0.06143727958202362,-0.0032299288362264635,0.010334368944168091,35.835217791667674,9.690847778320313,0.1920506286621094,-1.0451266479492187,35.835217791667674,-0.00028208643198013306,-0.0016826449427753687,0.0001695738174021244,35.835217791667674
2025-10-06 13:48:04.619568,9.751510301828384,0.19307281332090498,-1.0520794259011745,35.964296791673405,-0.05272902131080628,-0.004465061780065298,0.01054486870765686,35.964296791673405,9.694140930175783,0.19055374145507814,-1.0419831848144532,35.964296791673405,-0.0012257385533303022,0.0017345368396490812,-0.000793007668107748,35.964296791673405
2025-10-06 13:48:04.742963,9.751467032432556,0.1932778861373663,-1.0524325977265836,36.09337579167914,-0.061668244600296025,-0.0015266897343099118,0.009101922065019608,36.09337579167914,9.691147155761719,0.1922003173828125,-1.0404862976074218,36.09337579167914,0.0015154164284467697,0.0004938628990203142,-0.001431815791875124,36.09337579167914
2025-10-06 13:48:04.864654,9.751500946283342,0.19289586195722222,-1.0521950545907022,36.21252579166321,-0.05571402490139008,-0.003988696429878474,0.015750133171677592,36.21252579166321,9.699080657958985,0.1884580993652344,-1.0371931457519532,36.21252579166321,0.0010592537000775337,-0.0007212053751572967,0.0006778349634259939,36.21252579166321
2025-10-06 13:48:04.988263,9.751565265655518,0.19261254608631134,-1.0516570376604797,36.34160579167656,-0.057873401641845706,-0.00804637173190713,0.018355579376220704,36.34160579167656,9.698032836914063,0.18636245727539064,-1.0330018615722656,36.34160579167656,0.0009803934954106808,0.0005529327318072319,0.00044151628389954567,36.34160579167656
2025-10-06 13:48:05.105929,9.751529012918473,0.19287393489852547,-1.051948082819581,36.45082579166046,-0.06726753830909729,-0.0050146086886525155,0.010862957239151002,36.45082579166046,9.685608673095704,0.19040405273437502,-1.039588165283203,36.45082579166046,0.0018556611612439156,-0.0012948904186487198,0.0026575331576168537,36.45082579166046
2025-10-06 13:48:05.231179,9.751572867035867,0.1920710573717952,-1.0516893435269594,36.57990629167762,-0.057881003022193914,-0.008253308348357679,0.014047350883483887,36.57990629167762,9.695637817382813,0.18217117309570313,-1.042881317138672,36.57990629167762,-0.001025486271828413,0.0008526823366992176,0.0003620409406721592,36.57990629167762
2025-10-06 13:48:05.355090,9.751547139286995,0.19211673874408008,-1.0519146075099708,36.69905629166169,-0.06743535339832306,-0.004407064709812403,0.018463168144226074,36.69905629166169,9.685009918212891,0.19100280761718752,-1.0371931457519532,36.69905629166169,0.0003558075986802578,-0.000761518080253154,-6.577745079994202e-05,36.69905629166169
2025-10-06 13:48:05.482595,9.75154421567917,0.19187795307487251,-1.0519800232350827,36.82813529166742,-0.054559784531593325,-0.008658977206796408,0.01792997516691685,36.82813529166742,9.693691864013672,0.18606307983398437,-1.036893768310547,36.82813529166742,0.0019835056737065315,0.0029388414695858955,-0.0005249609239399433,36.82813529166742
2025-10-06 13:48:05.599815,9.75162549197674,0.19144085543230177,-1.0513189955055715,36.9472852916806,-0.06586596071720123,-0.004180284105241299,0.006641121357679368,36.9472852916806,9.684860229492188,0.18681152343750002,-1.0433303833007812,36.9472852916806,2.6112888008356094e-05,-0.0003423031885176897,-0.0010552266612648964,36.9472852916806
2025-10-06 13:48:05.723707,9.751576375365257,0.19168466605246068,-1.0517199683189393,37.07636529166484,-0.0656683248281479,-0.0012805950455367565,0.012131803035736084,37.07636529166484,9.691446533203125,0.19040405273437502,-1.04183349609375,37.07636529166484,0.0023897523060441017,-0.002263686154037714,0.00011680461466312408,37.07636529166484
2025-10-06 13:48:05.847141,9.751578129529953,0.19106429474428296,-1.0518161550164222,37.19551529167802,-0.056539067029953004,-0.010539697576314212,0.005342016220092774,37.19551529167802,9.694589996337891,0.18082397460937502,-1.0493179321289063,37.19551529167802,0.003045380115509033,0.0013683991273865104,-0.0012230477295815945,37.19551529167802
2025-10-06 13:48:05.969127,9.75160444200039,0.19107410710304976,-1.0515769308060408,37.314665291662095,-0.06105604112148285,-0.008154490403831005,0.007947535514831544,37.314665291662095,9.689350891113282,0.1824705505371094,-1.0421328735351563,37.314665291662095,-0.0024564056657254696,-0.00037396710831671953,0.0021097282879054546,37.314665291662095
2025-10-06 13:48:06.096952,9.751659990549088,0.1910296317189932,-1.0510662496089935,37.44374429166783,-0.07099104523658753,-0.002272136639803648,0.012076839208602906,37.44374429166783,9.683812408447267,0.18965560913085938,-1.041683807373047,37.44374429166783,-0.0008111731149256229,0.0011574954260140657,-0.00018615834414958954,37.44374429166783
2025-10-06 13:48:06.217379,9.751658821105957,0.1916297204978764,-1.0509535445272924,37.56289466668386,-0.06290785431861878,-0.004818233605474234,0.014210049659013749,37.56289466668386,9.686357116699218,0.18621276855468752,-1.0425819396972658,37.56289466668386,0.0025641126558184624,0.00019277833052910864,0.0011826218105852604,37.56289466668386
2025-10-06 13:48:06.366655,9.751660575270654,0.19133136631920936,-1.0510038305819036,37.71183266668231,-0.05901653230190278,-0.0007776248641312123,0.015757076740264893,37.71183266668231,9.683662719726563,0.18875747680664062,-1.0371931457519532,37.71183266668231,0.0004773917607963085,0.0004628791648428887,0.0016318303532898426,37.71183266668231
2025-10-06 13:48:06.504498,9.751618475317956,0.19118905970826747,-1.0514071422815323,37.8508406666806,-0.05598241209983826,0.0029571927711367608,0.003735420629382134,37.8508406666806,9.695338439941407,0.19309844970703127,-1.0505154418945313,37.8508406666806,0.0008415565825998783,-0.00270289508625865,0.0013530284631997347,37.8508406666806
2025-10-06 13:48:06.647104,9.751561757326126,0.1912281264178455,-1.0519374116510154,37.98984966665739,-0.06266051709651947,-0.005464424025267363,0.005014645233750344,37.98984966665739,9.689201202392578,0.18591339111328126,-1.0446775817871095,37.98984966665739,-6.264075636863708e-05,0.00027812866028398275,-0.0010400176979601383,37.98984966665739
2025-10-06 13:48:06.776084,9.751579298973084,0.19083320181816818,-1.0518415904045106,38.11892866666312,-0.06148054897785187,-0.0005788378044962883,0.0007274667173624039,38.11892866666312,9.691296844482423,0.18755996704101563,-1.047821044921875,38.11892866666312,-0.002171094762161374,-0.0027951356023550034,-0.0008089551702141762,38.11892866666312
2025-10-06 13:48:06.908907,9.751488082408905,0.19085922192782165,-1.0526934566348791,38.248007666668855,-0.07156758069992065,0.0010417362861335278,0.007117230892181397,38.248007666668855,9.679770812988282,0.19040405273437502,-1.05141357421875,38.248007666668855,-0.000995549838989973,-0.0006830394268035889,0.0022578276693820953,38.248007666668855
2025-10-06 13:48:07.025695,9.751438965797425,0.1907241512462497,-1.053172343596816,38.3770876666822,-0.051310486793518066,-0.002715099770575762,0.014781761169433595,38.3770876666822,9.701026611328125,0.19085311889648438,-1.0336006164550782,38.3770876666822,0.0015276242047548294,-0.0009143883944489062,0.0004868661053478718,38.3770876666822
2025-10-06 13:48:07.151905,9.75135710477829,0.19131316686049105,-1.0538330058753491,38.49623741666437,-0.05526905179023743,-0.005549446195363999,0.014693906754255295,38.49623741666437,9.694739685058595,0.1824705505371094,-1.038240966796875,38.49623741666437,-0.0010375874117016792,0.0003219647041987628,-0.00014230981469154358,38.49623741666437
2025-10-06 13:48:07.295716,9.751389264464379,0.19145172759890558,-1.0534883125126362,38.64517441668431,-0.05440541803836823,-0.0002992495335638523,0.015247345715761185,38.64517441668431,9.693991241455079,0.18935623168945315,-1.0433303833007812,38.64517441668431,-0.0011176224797964096,-0.0003478542494121939,-0.001778284553438425,38.64517441668431
2025-10-06 13:48:07.418647,9.75140388250351,0.19123026430606843,-1.0533985577523708,38.764325416676,-0.05696415960788727,-0.0027721649408340454,0.017252867594361305,38.764325416676,9.688153381347657,0.19085311889648438,-1.046473846435547,38.764325416676,0.0009687072597444057,0.0005087539320811629,-0.0005829660221934319,38.764325416676
2025-10-06 13:48:07.544530,9.751478142142297,0.19156362868845464,-1.0526462403684855,38.89340441668173,-0.06167935431003571,-0.00086025333032012,0.009615307599306106,38.89340441668173,9.691296844482423,0.19025436401367188,-1.0436297607421876,38.89340441668173,0.000429750420153141,0.0004037747858092189,0.0002863174304366112,38.89340441668173
2025-10-06 13:48:07.674872,9.751515564322473,0.1917594555951655,-1.0522717992961408,39.02248341665836,-0.058422455191612245,-0.004498847723007202,0.004001834392547607,39.02248341665836,9.689650268554688,0.18621276855468752,-1.0503657531738282,39.02248341665836,0.0007490315474569798,0.00014125867164693773,9.833788499236107e-05,39.02248341665836
2025-10-06 13:48:07.799368,9.751555910110474,0.1920452565327287,-1.051836839541793,39.15156241666409,-0.051877666711807255,-0.0064312794059515005,0.015991111546754838,39.15156241666409,9.696835327148438,0.18546432495117188,-1.039288787841797,39.15156241666409,0.0008944477885961533,0.0017332227434962988,-0.0005518975667655468,39.15156241666409
2025-10-06 13:48:07.924315,9.751577544808388,0.19197063144296408,-1.051644393056631,39.270713416684885,-0.06103089809417725,-0.007105097919702531,0.01340320698916912,39.270713416684885,9.689500579833984,0.18621276855468752,-1.0404862976074218,39.270713416684885,0.0007703118026256561,-0.0009391907951794565,0.00038724858313798904,39.270713416684885
2025-10-06 13:48:08.053311,9.751523750424386,0.19229520672932268,-1.0521007682383061,39.38986341666896,-0.0566343766450882,-0.006830881778150797,0.008621134757995606,39.38986341666896,9.692793731689454,0.19160156250000002,-1.0449769592285156,39.38986341666896,0.00021919328719377518,-0.0007949421415105462,0.0006214631721377373,39.38986341666896
2025-10-06 13:48:08.178804,9.751480481028556,0.1915338444337249,-1.0526288449019194,39.528870916663436,-0.05988542854785919,-0.0008304508030414581,0.005256793051958085,39.528870916663436,9.695787506103516,0.19040405273437502,-1.0488688659667968,39.528870916663436,0.0002279495820403099,0.0008804311510175467,-1.3390090316534042e-05,39.528870916663436
2025-10-06 13:48:08.301334,9.751509132385255,0.19161734998226168,-1.0523595075309278,39.648020916676614,-0.06365512847900391,-0.009895224776118995,0.01561557412147522,39.648020916676614,9.686806182861329,0.1826202392578125,-1.0373428344726563,39.648020916676614,-0.0014332986902445555,-0.00048410266754217446,0.00020045647397637367,39.648020916676614
2025-10-06 13:48:08.419556,9.751568773984909,0.19147104168310763,-1.0518361817300321,39.76717091666069,-0.06536134600639344,-0.006006698459386826,0.015690418481826784,39.76717091666069,9.684111785888673,0.18456619262695315,-1.0361453247070314,39.76717091666069,-0.0007572034373879433,-0.0001320559240411967,-0.0023343698121607304,39.76717091666069
2025-10-06 13:48:08.542174,9.751526674032212,0.19130112525075674,-1.0522523573040963,39.88632191668148,-0.05454165816307068,-0.0022442892752587798,0.004131642580032349,39.88632191668148,9.69788314819336,0.18995498657226564,-1.0533595275878906,39.88632191668148,0.0008894302882254124,-0.004954040050506592,-0.0014509223401546478,39.88632191668148
2025-10-06 13:48:08.667180,9.751533105969429,0.19127954537048936,-1.05219761274755,40.01540091665811,-0.05664373219013214,-0.00761146679520607,3.508329391479492e-05,40.01540091665811,9.693991241455079,0.18456619262695315,-1.0535092163085937,40.01540091665811,0.0030968268401920795,-0.0006233253516256809,-0.0010891011916100979,40.01540091665811
2025-10-06 13:48:08.791594,9.751585730910302,0.19151157019659878,-1.0516620808839798,40.14447991666384,-0.06463044404983521,-0.0027540751174092294,0.0110267523676157,40.14447991666384,9.691296844482423,0.18696121215820313,-1.043031005859375,40.14447991666384,0.002692796755582094,-0.00028235861100256443,-0.0006615584716200829,40.14447991666384
2025-10-06 13:48:08.914208,9.751573451757432,0.1916098216921091,-1.0517643340677023,40.26362991667702,-0.06207287192344666,0.00178804200142622,0.01891223430633545,40.26362991667702,9.686207427978516,0.19504440307617188,-1.0322534179687501,40.26362991667702,0.001990958582609892,0.0017554786754772067,-0.0007475269958376884,40.26362991667702
2025-10-06 13:48:09.068078,9.751558248996735,0.19178726641461255,-1.0518731653690339,40.40263891668292,-0.06100984811782837,-0.003628507945686579,0.0018067896366119386,40.40263891668292,9.696086883544922,0.1920506286621094,-1.0496173095703125,40.40263891668292,0.00035028159618377686,-0.0011950588086619973,3.409106284379959e-06,40.40263891668292
2025-10-06 13:48:09.201096,9.751580468416215,0.19155409041792154,-1.0517031575739384,40.54164720833069,-0.06282891690731049,-0.005640735849738121,0.006427332535386086,40.54164720833069,9.686656494140626,0.18830841064453127,-1.0482701110839845,40.54164720833069,-6.763497367501259e-05,-0.00117867486551404,0.0008613269310444593,40.54164720833069
2025-10-06 13:48:09.345525,9.75152550458908,0.19112368052825332,-1.052294237986207,40.69058520832914,-0.06367150068283081,-0.00446188235655427,0.009562536478042604,40.69058520832914,9.682914276123048,0.18486557006835938,-1.0413844299316406,40.69058520832914,-0.001973286736756563,-0.00030735344626009464,0.0017376288305968046,40.69058520832914
2025-10-06 13:48:09.476766,9.751571697592736,0.19118105633184315,-1.0518426136672496,40.80973520834232,-0.05159466147422791,-0.004668928608298302,0.010757926627993583,40.80973520834232,9.704319763183594,0.1866618347167969,-1.0413844299316406,40.80973520834232,0.0005623619072139263,0.0003531974507495761,-4.3431296944618225e-05,40.80973520834232
2025-10-06 13:48:09.612580,9.751530182361604,0.19109565043821933,-1.0522675600647926,40.94874420834822,-0.057986837625503544,-0.006679109986871481,0.013277711123228075,40.94874420834822,9.689949645996094,0.18606307983398437,-1.0352471923828126,40.94874420834822,-0.002148106461390853,0.0010207310551777482,-0.0001046210527420044,40.94874420834822
2025-10-06 13:48:09.733548,9.751505039334297,0.19110789304599166,-1.0524860997498036,41.077823208324844,-0.05931006252765656,-0.0023503979668021203,-0.0028195273876190185,41.077823208324844,9.694440307617189,0.18935623168945315,-1.0568023681640626,41.077823208324844,0.002021020743995905,0.00046529778046533465,0.0024275605101138353,41.077823208324844
2025-10-06 13:48:09.892610,9.751576960086823,0.19091069569811225,-1.0518605207651854,41.23669020834495,-0.05878322839736939,-0.008140767719596625,0.005236766338348389,41.23669020834495,9.686955871582033,0.18531463623046876,-1.0473719787597657,41.23669020834495,0.001240893267095089,-0.0003875760012306273,-0.0011972305364906788,41.23669020834495
2025-10-06 13:48:10.019673,9.751555910110474,0.19047909809276461,-1.052115240097046,41.365769208350684,-0.06175770699977875,0.000972775686532259,-0.0019925118237733843,41.365769208350684,9.691446533203125,0.18696121215820313,-1.0503657531738282,41.365769208350684,0.0007932558655738831,0.0010265223681926727,-0.0005407072603702545,41.365769208350684
2025-10-06 13:48:10.140811,9.751623737812043,0.1902823941037059,-1.0515276680141687,41.49484791667783,-0.049849852323532104,-0.003919936828315258,0.005952611714601517,41.49484791667783,9.697134704589844,0.18965560913085938,-1.045276336669922,41.49484791667783,-0.0018696135375648737,-0.0001812244299799204,0.001040556700900197,41.49484791667783
2025-10-06 13:48:10.259077,9.751657651662827,0.19005619822070002,-1.0512560648471116,41.60406891666935,-0.06096073150634766,-0.00025091864168643954,0.01675709679722786,41.60406891666935,9.688452758789063,0.1872605895996094,-1.039588165283203,41.60406891666935,0.002649088855832815,0.0005684671923518181,-5.500391125679016e-05,41.60406891666935
2025-10-06 13:48:10.395874,9.751650635004044,0.18929448874667287,-1.0514732158184052,41.733148916682694,-0.06274764060974121,-0.002632654029875994,0.00574766680598259,41.733148916682694,9.694440307617189,0.18546432495117188,-1.0463241577148439,41.733148916682694,0.0006138281896710396,-0.0025089129339903593,-0.0012836754322052002,41.733148916682694
2025-10-06 13:48:10.515569,9.751624907255174,0.1892368023097515,-1.0517071044445039,41.86222791665932,-0.05688580691814423,-0.0045209209620952606,0.008526482954621316,41.86222791665932,9.696535949707032,0.18696121215820313,-1.0475216674804688,41.86222791665932,-0.00133398431353271,-0.0007350720698013902,0.00020454125478863716,41.86222791665932
2025-10-06 13:48:10.676794,9.75164011001587,0.18816301597282292,-1.05176740385592,42.02109491667943,-0.05944513320922852,-0.0009024446457624436,0.009485353231430054,42.02109491667943,9.693691864013672,0.19010467529296876,-1.0463241577148439,42.02109491667943,-0.001139980275183916,0.0006056876154616475,0.000598100945353508,42.02109491667943
2025-10-06 13:48:10.815907,9.751609704494477,0.18801409469917418,-1.0520680238306523,42.160102916677715,-0.057169981598854065,-0.004196382220834494,0.010534416809678078,42.160102916677715,9.699080657958985,0.18217117309570313,-1.0437794494628907,42.160102916677715,-0.002207766752690077,-0.002754340646788478,0.0016012887936085463,42.160102916677715
2025-10-06 13:48:10.949735,9.75156994342804,0.1879981610365212,-1.052440126016736,42.299111916683614,-0.06506372272968293,-0.0037313458509743215,0.006265949383378029,42.299111916683614,9.69264404296875,0.18696121215820313,-1.0472222900390626,42.299111916683614,0.0003167414106428623,-0.0007078530616126955,-0.0009333924390375614,42.299111916683614
2025-10-06 13:48:11.077816,9.751600933670998,0.18824087530374528,-1.052118821516633,42.41826191666769,-0.055214672684669494,0.003959405533969403,0.00968649744987488,42.41826191666769,9.693392486572266,0.1886077880859375,-1.0436297607421876,42.42819091666024,0.0013990551233291626,0.0006918743602000177,0.00020254962146282196,42.41826191666769
2025-10-06 13:48:11.208008,9.751634847521782,0.1879857174307108,-1.051847876161337,42.557271416677395,-0.06093675792217255,0.003466138076037169,0.007469233274459839,42.557271416677395,9.69309310913086,0.188009033203125,-1.0449769592285156,42.557271416677395,0.0016795401461422443,0.0022459998726844788,0.0016826502978801727,42.557271416677395
2025-10-06 13:48:11.328917,9.751618475317956,0.18739693935960533,-1.0521160440891981,42.67642141666147,-0.060919216275215154,0.0004624051228165627,0.003846152275800705,42.67642141666147,9.691895599365235,0.18905685424804688,-1.045276336669922,42.67642141666147,-0.0015217687468975782,-5.4786389227956533e-05,0.0002176910638809204,42.67642141666147
2025-10-06 13:48:11.454019,9.751590993404388,0.18708257842808962,-1.052409355044365,42.8055004166672,-0.06628228247165681,0.00631519390270114,0.005636788979172707,42.8055004166672,9.687704315185547,0.19384689331054689,-1.046473846435547,42.8055004166672,7.705949246883392e-05,0.00018678820924833417,0.0023882840760052204,42.8055004166672
2025-10-06 13:48:11.579444,9.75153427541256,0.1874276555143297,-1.0528886074572803,42.92465041668038,-0.06248159229755402,0.004173906985670328,0.013000553101301195,42.92465041668038,9.69264404296875,0.19414627075195315,-1.0410850524902344,42.92465041668038,0.00010011950507760048,0.0003965140786021948,0.00043157488107681274,42.92465041668038
2025-10-06 13:48:11.702379,9.751555325388908,0.18719661740586163,-1.0527293439209462,43.05373041666462,-0.05112746894359589,0.004704359080642462,0.005057841539382935,43.05373041666462,9.694140930175783,0.19235000610351563,-1.0448272705078125,43.05373041666462,-0.001105757663026452,-0.0016203044215217233,0.0006176894530653954,43.05373041666462
2025-10-06 13:48:11.823135,9.751491006016732,0.18731202682480216,-1.0533096800744535,43.1728804166778,-0.05465450942516327,0.005037961006164551,0.014768751114606859,43.1728804166778,9.692045288085938,0.18681152343750002,-1.0421328735351563,43.1728804166778,-0.000867696013301611,0.0008046817965805531,0.00012517347931861877,43.1728804166778
2025-10-06 13:48:11.952471,9.751507962942124,0.18708060499280693,-1.05318169914186,43.29203041666187,-0.06140862822532654,-0.005508205052465201,0.0037141513824462892,43.29203041666187,9.684860229492188,0.18291961669921875,-1.0443782043457033,43.29203041666187,-0.0014425080735236406,8.514540968462825e-05,0.00045065535232424736,43.29203041666187
2025-10-06 13:48:12.071035,9.751538953185081,0.187072089985013,-1.0528909463435412,43.421109416667605,-0.060991137027740484,0.002433793880045414,0.013751554861664773,43.421109416667605,9.689051513671876,0.19040405273437502,-1.0388397216796876,43.421109416667605,0.00021949876099824905,0.0008630667580291629,-0.0006849076598882675,43.421109416667605
2025-10-06 13:48:12.201554,9.751517318487167,0.18744583670049908,-1.0530336184054614,43.55018891667714,-0.06261549353599549,-0.0018318230286240578,0.007607227563858033,43.55018891667714,9.687255249023439,0.18770965576171875,-1.0446775817871095,43.55018891667714,-0.0028636471834033728,-0.00044173054629936814,-0.0009151487611234188,43.55018891667714
2025-10-06 13:48:12.329116,9.75146644771099,0.18775484377518298,-1.0534396344423294,43.679267916682875,-0.060918631553649905,0.003996407445520163,0.01400181569159031,43.679267916682875,9.690398712158204,0.18815872192382813,-1.0422825622558594,43.679267916682875,-0.0010626218281686306,0.00013146980199962854,-0.0011573485098779202,43.679267916682875
2025-10-06 13:48:12.451901,9.751481650471687,0.18790327169001103,-1.0532762778550386,43.79841791666695,-0.057940059900283815,0.0026504332199692726,0.005904591456055642,43.79841791666695,9.69878128051758,0.18770965576171875,-1.04662353515625,43.79841791666695,0.0017363145016133785,0.00011031585745513439,0.0017016155179589987,43.79841791666695
2025-10-06 13:48:12.577904,9.751506793498994,0.1875574454292655,-1.0531089743971824,43.927497916680295,-0.054970843791961675,0.001499408818781376,0.012772657871246339,43.927497916680295,9.696685638427734,0.1874102783203125,-1.0410850524902344,43.927497916680295,-0.0024807502049952745,-0.0023383127991110086,-0.001288553699851036,43.927497916680295
2025-10-06 13:48:12.734060,9.751435457468034,0.18783480444923045,-1.053724101483822,44.07643491667113,-0.05504919648170471,0.0027189004607498647,0.0018617534637451172,44.07643491667113,9.694440307617189,0.19249969482421875,-1.0515632629394531,44.07643491667113,-0.0008190874941647053,-0.00054179533617571,-0.00022362684831023216,44.07643491667113
2025-10-06 13:48:12.863230,9.75142961025238,0.18808945069089533,-1.0537123339623213,44.20551491668448,-0.05773950040340424,-0.004421445205807686,0.016669461652636528,44.20551491668448,9.69548812866211,0.1838177490234375,-1.044228515625,44.20551491668448,-0.000611746683716774,0.0021127399522811174,0.001115025021135807,44.20551491668448
2025-10-06 13:48:12.991429,9.751457092165948,0.1879182734526694,-1.05351937584579,44.334593916661106,-0.06450005114078522,0.002485797554254532,0.015428317040205003,44.334593916661106,9.69159622192383,0.18890716552734377,-1.041534118652344,44.334593916661106,0.0007747611962258816,-0.0015737811336293817,0.002753447275608778,44.334593916661106
2025-10-06 13:48:13.119611,9.751479311585427,0.18799834376201036,-1.053298935815692,44.46367291666684,-0.06018129765987396,-0.003282480686903,0.009818498343229294,44.46367291666684,9.697583770751953,0.19085311889648438,-1.0443782043457033,44.46367291666684,-0.0025640400126576424,0.0004572562174871564,-0.000791619997471571,44.46367291666684
2025-10-06 13:48:13.247149,9.751558248996735,0.18792426684871316,-1.052574173435569,44.59275291668018,-0.05831545114517212,-0.0014121573977172374,0.006548881530761719,44.59275291668018,9.696236572265626,0.1866618347167969,-1.043031005859375,44.59275291668018,-0.0017962607089430094,0.0011134465457871556,5.910499021410942e-05,44.59275291668018
2025-10-06 13:48:13.369813,9.751531936526298,0.1882081674411893,-1.0527551447600128,44.72183191665681,-0.05873878955841065,-0.001546369269490242,0.008526482954621316,44.72183191665681,9.692344665527344,0.18681152343750002,-1.0451266479492187,44.72183191665681,-0.0022215498611330986,3.712778561748564e-05,0.001269889296963811,44.72183191665681
2025-10-06 13:48:13.491899,9.751528428196908,0.18841669376939535,-1.0527523673325778,44.84098191666999,-0.05663963913917542,-0.004898322187364102,0.0025365952402353286,44.84098191666999,9.6998291015625,0.1818717956542969,-1.05141357421875,44.84098191666999,-0.0016735121607780457,0.0005527490866370499,0.0003615133464336395,44.84098191666999
2025-10-06 13:48:13.615750,9.751536614298821,0.18886914035305383,-1.0526045058667661,44.96013191668317,-0.054252220988273626,-0.0028060605190694332,-0.003749234676361084,44.96013191668317,9.695637817382813,0.18576370239257814,-1.0553054809570312,44.96013191668317,-0.0005123410373926163,-0.0026722755283117294,-0.0009971605613827705,44.96013191668317
2025-10-06 13:48:13.750631,9.751457092165948,0.18971563445404174,-1.053175121024251,45.08921191666741,-0.06719678699970245,-0.006496640313416719,0.009844518452882768,45.08921191666741,9.686357116699218,0.18127304077148437,-1.0431806945800781,45.08921191666741,0.0013702809810638428,0.0017321049235761166,-0.00013011181727051735,45.08921191666741
2025-10-06 13:48:13.877139,9.75154655456543,0.19014999121427537,-1.0522783043235542,45.228219916665694,-0.05710624694824219,-0.00019502291455864907,0.0016126620769500732,45.228219916665694,9.695188751220703,0.1922003173828125,-1.0515632629394531,45.228219916665694,0.0005626622587442398,-8.233018161263317e-05,-0.001478478778153658,45.228219916665694
2025-10-06 13:48:14.007508,9.75162900030613,0.19028233928605914,-1.0514829368144274,45.34737091665738,-0.06063211798667908,0.007007394600659609,0.013091988936066628,45.34737091665738,9.692344665527344,0.19414627075195315,-1.0364447021484375,45.34737091665738,0.0007472503930330276,0.0023775496520102024,0.0014800257049500942,45.34737091665738
2025-10-06 13:48:14.131071,9.75170033633709,0.19027773460373285,-1.0508140153437853,45.47645054166787,-0.05875808537006379,-0.0010711916349828243,0.007333724051713944,45.47645054166787,9.687105560302735,0.188009033203125,-1.0433303833007812,45.47645054166787,-0.0006487988866865635,-0.0009796875528991222,-0.00034253206104040146,45.47645054166787
2025-10-06 13:48:14.257701,9.751661744713784,0.1907571880146861,-1.0510959973186256,45.605529541673604,-0.05767108798027039,0.004885969944298268,0.0038732687383890153,45.605529541673604,9.696835327148438,0.20058288574218752,-1.0490185546875002,45.605529541673604,0.00021552247926592827,-0.00026022642850875854,-0.0006170440465211868,45.605529541673604
2025-10-06 13:48:14.386318,9.75167460858822,0.19072250671684743,-1.0509815380722285,45.734609541657846,-0.05663613080978394,0.004770944248884916,0.014387731924653055,45.734609541657846,9.695787506103516,0.1980381774902344,-1.0338999938964843,45.734609541657846,-0.0003858553245663643,0.0009712483151815832,0.00015762215480208397,45.734609541657846
2025-10-06 13:48:14.509505,9.751726064085961,0.19119587536901236,-1.0504237136989834,45.853759541671025,-0.05983046472072601,-0.0006420973688364029,0.01263232469558716,45.853759541671025,9.694739685058595,0.1920506286621094,-1.0385403442382812,45.853759541671025,0.0004985425621271133,-0.0007932973676361144,0.0007296579424291849,45.853759541671025
2025-10-06 13:48:14.662553,9.751695073843003,0.19176069812849164,-1.0506150638312102,46.00269754166948,-0.055008265972137455,-0.010786998253315687,0.005637739151716233,46.00269754166948,9.69698501586914,0.18636245727539064,-1.0436297607421876,46.00269754166948,-0.0017397203482687473,-0.0015045644249767065,-0.002040799241513014,46.00269754166948
2025-10-06 13:48:14.789478,9.75173366546631,0.19151935430243613,-1.0502901048213245,46.14170554166776,-0.06298152923583984,8.217165246605873e-05,0.01653943419456482,46.14170554166776,9.691296844482423,0.1922003173828125,-1.0356962585449219,46.14170554166776,0.0013834722340106964,0.001711066230200231,0.001932328101247549,46.14170554166776
2025-10-06 13:48:14.933916,9.751693904399872,0.191408951561898,-1.0506695160269737,46.27078554168111,-0.06803235411643982,-0.0004061622172594071,0.0007532675564289093,46.27078554168111,9.68306396484375,0.1920506286621094,-1.0490185546875002,46.27078554168111,-0.0004200614057481289,-0.001200007856823504,9.541679173707962e-05,46.27078554168111
2025-10-06 13:48:15.052014,9.751705014109612,0.1912883710116148,-1.050593209862709,46.399864541657735,-0.061456575393676764,-0.008219120409339666,0.008910060301423073,46.399864541657735,9.692045288085938,0.18202148437500001,-1.0367440795898437,46.399864541657735,-0.00204110168851912,0.0006563977804034948,-0.0011706501245498657,46.399864541657735
2025-10-06 13:48:15.173783,9.751730741858482,0.1915940890274942,-1.0503113009780647,46.51901383334189,-0.04681222379207611,-0.0034353488311171534,0.0036872541904449463,46.51901383334189,9.700128479003906,0.1884580993652344,-1.0481204223632814,46.51901383334189,-0.0009561381302773952,0.00344454706646502,0.0013886154629290104,46.51901383334189
2025-10-06 13:48:15.298090,9.751845932006836,0.1918889531493187,-1.049173140451312,46.64809283334762,-0.05965212464332581,-0.00013772020116448403,0.007489259988069535,46.64809283334762,9.698631591796875,0.18995498657226564,-1.0403366088867188,46.64809283334762,1.3457611203193665e-05,-0.0014357409672811627,-0.00021596718579530716,46.64809283334762
2025-10-06 13:48:15.424979,9.751862304210663,0.19182244107127192,-1.0490492525696755,46.77717283333186,-0.0631089985370636,-0.0021667953953146937,0.004820298403501511,46.77717283333186,9.683962097167969,0.19055374145507814,-1.0439291381835938,46.77717283333186,0.0010110675357282162,0.000703945872373879,-0.00032444437965750694,46.77717283333186
2025-10-06 13:48:15.542532,9.751882769465446,0.19201474137604238,-1.0488167526572942,46.88639383332338,-0.05235304534435273,-0.0034069532901048662,0.0056355464458465575,46.88639383332338,9.701176300048829,0.19085311889648438,-1.0389894104003907,46.88639383332338,0.0005684611387550831,-0.0010768321808427572,-0.0006306832656264305,46.88639383332338
2025-10-06 13:48:15.659795,9.751889201402665,0.19189452627673745,-1.0487775763124227,47.01547283332911,-0.05131165623664856,-0.004633936677128077,0.01323107957839966,47.01547283332911,9.698332214355469,0.18770965576171875,-1.0388397216796876,47.01547283332911,-0.0007783793844282627,-0.0001540191879030317,0.0002365298569202423,47.01547283332911
2025-10-06 13:48:15.800760,9.751933640241623,0.19167399488389494,-1.0483983112871647,47.14455283334246,-0.06333177745342256,-0.00845500074326992,0.00806221403181553,47.14455283334246,9.689350891113282,0.18291961669921875,-1.0407856750488282,47.14455283334246,-0.0016549213323742151,0.00042820069938898087,-0.000511564314365387,47.14455283334246
2025-10-06 13:48:15.931295,9.75192662358284,0.19127612840384245,-1.0485437607765198,47.283560833340744,-0.07290425419807435,-0.004015575349330902,0.0076083970069885255,47.283560833340744,9.68351303100586,0.18681152343750002,-1.0401869201660157,47.283560833340744,0.0015721837989985943,0.002815838670358062,5.036778748035431e-05,47.283560833340744
2025-10-06 13:48:16.060343,9.751942995786667,0.19141644330695273,-1.0483518259227276,47.40271083332482,-0.06873051166534425,3.543047234416008e-05,0.012506171017885209,47.40271083332482,9.684261474609375,0.19235000610351563,-1.034498748779297,47.40271083332482,-0.0006979643367230892,0.0011999206617474556,0.0007031732238829136,47.40271083332482
2025-10-06 13:48:16.190883,9.751945334672929,0.19124968802556397,-1.0483711217343807,47.541720666660694,-0.05900191426277161,-0.0029412956535816194,0.012524735927581788,47.541720666660694,9.692045288085938,0.1874102783203125,-1.0367440795898437,47.541720666660694,0.0018945862539112568,0.0015277804341167212,-0.0024491758085787296,47.541720666660694
2025-10-06 13:48:16.319004,9.7519845110178,0.1910880490578711,-1.048037026450038,47.66087066667387,-0.05649638235569,0.0006632021628320217,0.0017132341861724855,47.66087066667387,9.697134704589844,0.1926493835449219,-1.0436297607421876,47.66087066667387,-0.0005878354422748089,-0.0012751193717122078,0.0009470314253121614,47.66087066667387
2025-10-06 13:48:16.451116,9.751962291598321,0.1913069541938603,-1.048188907876611,47.79987966667977,-0.05797280430793762,-0.0007532310113310814,0.0023145472258329393,47.79987966667977,9.69309310913086,0.19145187377929687,-1.0433303833007812,47.79987966667977,0.00021687662228941917,-0.0006544337375089526,0.001530420733615756,47.79987966667977
2025-10-06 13:48:16.577208,9.752008484601975,0.19108857896178963,-1.0478082541376352,47.9289586666564,-0.058317205309867864,-0.008917442411184312,0.009866664782166482,47.9289586666564,9.692793731689454,0.18441650390625,-1.039288787841797,47.9289586666564,-0.00015636859461665154,0.00021474898676387966,0.0008148122578859329,47.9289586666564
2025-10-06 13:48:16.702684,9.752013747096063,0.19113484505563974,-1.0477543135732412,48.04810866666958,-0.06026842117309571,0.0009157470613718033,-0.0009647174924612045,48.04810866666958,9.691446533203125,0.1932481384277344,-1.042881317138672,48.04810866666958,-0.0008946587331593037,-4.7851266572251916e-05,0.0003956565633416176,48.04810866666958
2025-10-06 13:48:16.835244,9.752013747096063,0.19089507266879083,-1.0478200216591358,48.17718866668292,-0.053680363297462466,-0.003933878783136607,0.007183742970228195,48.17718866668292,9.692494354248048,0.19175125122070313,-1.0434800720214845,48.17718866668292,-0.0012265457771718502,0.00035374792059883475,-0.0003830147907137871,48.17718866668292
2025-10-06 13:48:16.957136,9.752016085982323,0.19051273785531522,-1.0478494039177895,48.30626766665955,-0.06371301591396332,-0.00295275254175067,0.00826094627380371,48.30626766665955,9.691745910644531,0.19055374145507814,-1.0389894104003907,48.30626766665955,3.806641325354576e-05,0.001270195236429572,0.000853854464367032,48.30626766665955
2025-10-06 13:48:17.077741,9.752061694264412,0.18992971563711764,-1.047516551166773,48.42541766667273,-0.05912002801895142,0.0004743188247084618,0.00224087230861187,48.42541766667273,9.690847778320313,0.18965560913085938,-1.0425819396972658,48.42541766667273,0.0016012764535844326,-0.0014114098157733679,-0.00020162109285593033,48.42541766667273
2025-10-06 13:48:17.201995,9.75206461787224,0.18986333146691323,-1.0475077803432942,48.55449683332699,-0.05792485713958741,-0.0020039687119424343,-0.0037561051547527315,48.55449683332699,9.692943420410156,0.19040405273437502,-1.0521620178222657,48.55449683332699,-0.00238508521579206,-0.0005670377286151052,0.0005830468144267797,48.55449683332699
2025-10-06 13:48:17.335085,9.752084498405457,0.1896653301268816,-1.0473660584539175,48.683575833332725,-0.051656641960144044,0.0008884296007454395,0.0037363708019256593,48.683575833332725,9.695637817382813,0.18696121215820313,-1.0374925231933594,48.683575833332725,-0.00017568422481417656,0.00025837411521933973,0.003843780839815736,48.683575833332725
2025-10-06 13:48:17.455224,9.752089176177979,0.189772060085088,-1.0473059052228928,48.802726833324414,-0.06513330459594727,-0.00490649001672864,0.005173616409301758,48.802726833324414,9.688452758789063,0.1836680603027344,-1.0461744689941406,48.802726833324414,0.00030099647119641304,0.0028769904747605324,-0.0022579729557037354,48.802726833324414
2025-10-06 13:48:17.580942,9.752103209495544,0.18960643770173194,-1.0471989011764526,48.92187683333759,-0.05571753323078156,-0.0039924423024058344,0.0010245052725076677,48.92187683333759,9.698332214355469,0.18830841064453127,-1.0436297607421876,48.92187683333759,-0.004065343178808689,0.0007034351583570242,0.0002687200903892517,48.92187683333759
2025-10-06 13:48:17.706257,9.752086837291719,0.18986046267673373,-1.0473095597326756,49.05095583334332,-0.05689808607101441,-0.006641468536108732,0.005326813459396363,49.05095583334332,9.698930969238281,0.178428955078125,-1.0434800720214845,49.05095583334332,0.0018113343976438046,0.0009036673000082374,-0.0014125024899840355,49.05095583334332
2025-10-06 13:48:17.837145,9.75206461787224,0.18973251828923823,-1.0475522922724485,49.180035833327565,-0.05971878290176392,-0.010704790055751801,-0.0004188068211078644,49.180035833327565,9.692344665527344,0.18232086181640625,-1.0422825622558594,49.180035833327565,-0.0011404466349631548,0.002125333994626999,0.00021229684352874756,49.180035833327565
2025-10-06 13:48:17.983794,9.752134784460068,0.18950953837484122,-1.0469377499073744,49.32897283334751,-0.058741128444671636,-0.0012010911852121354,0.00690073773264885,49.32897283334751,9.691895599365235,0.18905685424804688,-1.0341993713378907,49.32897283334751,-6.651366129517555e-05,0.001641762675717473,0.0013980199582874775,49.32897283334751
2025-10-06 13:48:18.108394,9.752100870609285,0.1900988463498652,-1.0471426948159934,49.45805283333175,-0.06858783960342407,0.001802075318992138,0.00845273494720459,49.45805283333175,9.684261474609375,0.19549346923828126,-1.0421328735351563,49.45805283333175,-9.991088882088661e-05,-0.0011983682634308934,0.0008121475111693144,49.45805283333175
2025-10-06 13:48:18.233037,9.752027195692063,0.19008978316560388,-1.0478268190473319,49.587132208340336,-0.06192786097526551,-0.008367657959461212,0.015872851610183716,49.587132208340336,9.692494354248048,0.18516494750976564,-1.0318043518066407,49.587132208340336,-0.0014199444558471441,0.0027047423645853996,0.0004921143408864737,49.587132208340336
2025-10-06 13:48:18.363275,9.752072219252588,0.19087365724146368,-1.0472614663839341,49.70628220832441,-0.06092506349086762,0.003122943062335253,0.012314236164093018,49.70628220832441,9.688003692626953,0.19175125122070313,-1.035845947265625,49.70628220832441,-0.0010692956857383251,-0.0008310576085932553,0.002396747237071395,49.70628220832441
2025-10-06 13:48:18.500077,9.752151156663896,0.191266882494092,-1.0464495804905891,49.84529120833031,-0.058908943533897404,-0.0013119507394731046,0.009405904188752175,49.84529120833031,9.694589996337891,0.18890716552734377,-1.0379415893554689,49.84529120833031,0.0018375632353127003,0.001212413189932704,-0.0011391453444957733,49.84529120833031
2025-10-06 13:48:18.622981,9.752121920585633,0.1915317613631487,-1.0466810571402312,49.96444120834349,-0.0599269437789917,-0.011156871188431979,0.013678976297378541,49.96444120834349,9.692045288085938,0.183218994140625,-1.0340496826171877,49.96444120834349,-0.0007844520732760429,-0.00010142146493308246,0.0014812694862484932,49.96444120834349
2025-10-06 13:48:18.750137,9.752120166420937,0.1908615242689848,-1.046810207515955,50.09352120832773,-0.06696114420890809,0.0020872367173433307,-0.003555034026503563,50.09352120832773,9.686955871582033,0.19579284667968752,-1.0455757141113282,50.09352120832773,7.670372724533081e-06,0.0018993935082107782,0.00037375371903181076,50.09352120832773
2025-10-06 13:48:18.873277,9.752121335864068,0.1906668119877577,-1.046830161139369,50.22260020833346,-0.05873001873493195,-0.007896865736693143,0.007691573649644852,50.22260020833346,9.690548400878907,0.18052459716796876,-1.0376422119140625,50.22260020833346,0.0018498310819268227,-0.0032754770945757627,-0.0013771248050034046,50.22260020833346
2025-10-06 13:48:18.997890,9.752105548381806,0.19099555341526867,-1.046934241577983,50.34175020834664,-0.055719287395477296,-0.003734945543110371,0.00016138315200805664,50.34175020834664,9.686357116699218,0.18711090087890625,-1.0451266479492187,50.34175020834664,0.0019165235571563244,0.00020334799773991108,0.0016371486708521843,50.34175020834664
2025-10-06 13:48:19.118515,9.752127767801285,0.19080772988498212,-1.0467648915946484,50.47083004168235,-0.05499189376831055,-0.007139669582247735,0.008374236077070236,50.47083004168235,9.692494354248048,0.1884580993652344,-1.0315049743652345,50.47083020833088,0.0008733347058296204,0.0004946105764247477,-0.0020407787524163723,50.47083004168235
2025-10-06 13:48:19.257578,9.752152326107026,0.19102764001116157,-1.0464951156824829,50.60983904165914,-0.05336987614631653,0.0011727139167487621,0.0030146782100200654,50.60983904165914,9.697134704589844,0.18920654296875,-1.041683807373047,50.60983904165914,-0.0021699704229831696,-7.618192466907203e-05,-0.0034425859339535236,50.60983904165914
2025-10-06 13:48:19.381916,9.752102040052414,0.1914064664952457,-1.0468814704567195,50.72898904167232,-0.06170391261577606,0.002290719822049141,0.0008572749048471451,50.72898904167232,9.687554626464845,0.19474502563476564,-1.0448272705078125,50.72898904167232,-0.0010370381642132998,0.0007118182838894427,0.001609941478818655,50.72898904167232
2025-10-06 13:48:19.508214,9.752145309448244,0.19180630641058088,-1.046401414051652,50.85806804167805,-0.056208699345588684,-0.010084217749536039,-0.0023177631944417956,50.85806804167805,9.697583770751953,0.17872833251953127,-1.0424322509765624,50.85806804167805,-0.001765785738825798,0.0005300244665704668,-0.0013218135572969913,50.85806804167805
2025-10-06 13:48:19.633651,9.752125428915024,0.19216046495363118,-1.0465380196273328,50.97721904166974,-0.06606768965721131,-0.009839603137224913,0.0032077825069427492,50.97721904166974,9.683213653564454,0.17872833251953127,-1.0431806945800781,50.97721904166974,0.0015598051249980927,0.00044040801003575325,-0.0007961075752973557,50.97721904166974
2025-10-06 13:48:19.755415,9.752221323251725,0.19210952108725907,-1.04564112983644,51.10629804167547,-0.06107475221157074,-0.0035017512738704684,0.005304667130112648,51.10629804167547,9.692494354248048,0.1884580993652344,-1.0422825622558594,51.10629804167547,0.001842936035245657,-0.000905202585272491,0.0012277313508093357,51.10629804167547
2025-10-06 13:48:19.893715,9.752202027440072,0.19257167039439083,-1.045730372965336,51.22544804165955,-0.0625529283285141,-0.005909853950142861,0.0007532675564289093,51.22544804165955,9.685458984375,0.18621276855468752,-1.0473719787597657,51.22544804165955,-0.0017989636398851871,0.0002988512278534472,-0.0007188157178461552,51.22544804165955
2025-10-06 13:48:20.017196,9.752278625965118,0.1926019845530391,-1.045022348240018,51.364457041665446,-0.06202960252761841,-0.005041980966925621,0.0001952970027923584,51.364457041665446,9.688602447509766,0.18651214599609375,-1.0461744689941406,51.364457041665446,0.0008128401823341846,0.0016684073489159346,0.0015424019657075405,51.364457041665446
2025-10-06 13:48:20.149092,9.752276287078859,0.19323931278660894,-1.0449301815032959,51.493536333349766,-0.0564887809753418,-0.010918487515300513,0.0035457515716552737,51.493536333349766,9.693841552734375,0.18471588134765626,-1.0373428344726563,51.493536333349766,-0.00012739654630422592,-0.0017815595492720604,-0.0019301320426166058,51.493536333349766
2025-10-06 13:48:20.272842,9.752291489839555,0.19347225124016404,-1.0447523530572653,51.62261633333401,-0.06398725032806397,-0.0038166055642068386,0.002020651549100876,51.62261633333401,9.689201202392578,0.188009033203125,-1.043031005859375,51.62261633333401,5.067232996225357e-05,0.0005605388432741165,-0.0010717385448515415,51.62261633333401
2025-10-06 13:48:20.391622,9.752230094075204,0.19340877240523696,-1.0453237722069026,51.741766333347186,-0.06482515633106233,-0.00824384316802025,0.00364047646522522,51.741766333347186,9.686955871582033,0.18486557006835938,-1.0427316284179688,51.741766333347186,-3.688270226120949e-05,-0.00013584052794612944,-0.0018894351087510586,51.741766333347186
2025-10-06 13:48:20.516346,9.752226585745811,0.1934666963852942,-1.0453548355400564,51.870845333323814,-0.06467078983783722,-0.002763284482061863,-0.0017180581390857698,51.870845333323814,9.689350891113282,0.19249969482421875,-1.0491682434082032,51.870845333323814,-0.0007095090113580227,0.00014046492287889123,-0.0004454771988093853,51.870845333323814
2025-10-06 13:48:20.638883,9.752239449620248,0.19298879614099862,-1.0453065960109234,51.98999633334461,-0.06633198380470276,-0.009769802000373603,-0.002514229640364647,51.98999633334461,9.690548400878907,0.18621276855468752,-1.0487191772460938,51.98999633334461,-0.0007035220041871071,-0.00041786598740145564,0.001680262153968215,51.98999633334461
2025-10-06 13:48:20.758781,9.752218984365463,0.19284519217908383,-1.045524989515543,52.10914633332868,-0.061072998046875,-0.003189619593322277,0.011326202899217605,52.10914633332868,9.6902490234375,0.18770965576171875,-1.0306068420410157,52.10914633332868,0.00011926190927624702,0.0006516628200188279,0.0003129867836833,52.10914633332868
2025-10-06 13:48:20.899476,9.75223535656929,0.19269035059958697,-1.0454023441672327,52.23822533333441,-0.05764594495296479,-0.004381939955055714,-0.002867401465773583,52.23822533333441,9.695338439941407,0.18396743774414062,-1.0424322509765624,52.23822533333441,-0.00072822580114007,-0.0008843400282785296,-0.00017696060240268707,52.23822533333441
2025-10-06 13:48:21.027639,9.752252313494683,0.19271510990336538,-1.045234090536833,52.37723433334031,-0.055418155789375305,-0.012040824014693498,-0.0006407086551189423,52.37723433334031,9.693841552734375,0.18082397460937502,-1.0446775817871095,52.37723433334031,-0.00017529120668768883,-0.0012370949843898416,0.0016247369349002838,52.37723433334031
2025-10-06 13:48:21.153638,9.75220962882042,0.1927059370838106,-1.0456509239226581,52.50631433332455,-0.05687118887901307,0.005332276951521635,0.008457412719726562,52.50631433332455,9.693242797851562,0.19294876098632813,-1.0365943908691406,52.50631433332455,2.50362791121006e-05,0.0005258377641439438,0.002739969175308943,52.50631433332455
2025-10-06 13:48:21.278954,9.75219851911068,0.19247323617339135,-1.0457811706513167,52.62546433333773,-0.059405956864357,-0.001470483373850584,0.0021519215404987337,52.62546433333773,9.690997467041017,0.18935623168945315,-1.041683807373047,52.62546433333773,-0.0008654226548969746,-0.0015285885892808437,0.0006285104900598526,52.62546433333773
2025-10-06 13:48:21.424505,9.75222307741642,0.19237076371908188,-1.0455660662055015,52.774402333336184,-0.06571802616119385,-0.008253710344433784,0.0034337043017148975,52.774402333336184,9.686656494140626,0.18606307983398437,-1.0425819396972658,52.774402333336184,0.0018121972680091858,-8.464042912237346e-05,-0.00039997370913624763,52.774402333336184
2025-10-06 13:48:21.548424,9.752226585745811,0.19220223600044847,-1.0455893088877202,52.89355233334936,-0.05389320194721222,-0.010629817787557842,0.0027082841098308563,52.89355233334936,9.697284393310547,0.18336868286132812,-1.0437794494628907,52.89355233334936,0.001554741058498621,-9.692186722531915e-05,-0.0027071991935372353,52.89355233334936
2025-10-06 13:48:21.695605,9.752227755188942,0.19284586826339364,-1.0454467099159956,53.03256133332616,-0.05883585333824158,-0.0058846926502883435,-0.0020745190232992175,53.03256133332616,9.68830307006836,0.18411712646484377,-1.0460247802734375,53.03256133332616,-0.0014997224789112806,0.0009008358465507627,-0.0012275250628590584,53.03256133332616
2025-10-06 13:48:21.816239,9.752202612161637,0.1926592324487865,-1.04571633964777,53.17156933332444,-0.05806226670742035,-0.009140860866755248,-0.0019552358239889145,53.17156933332444,9.693392486572266,0.18232086181640625,-1.04662353515625,53.17156933332444,-0.0007651443593204021,0.0019959090277552605,0.0007891168352216482,53.17156933332444
2025-10-06 13:48:21.942767,9.752206120491028,0.19264845164492728,-1.0456941933184862,53.290720333345234,-0.06629806995391846,-0.008681032173335552,0.0016150009632110596,53.290720333345234,9.685009918212891,0.18097366333007814,-1.0493179321289063,53.290720333345234,-2.8438400477170944e-05,-0.0019098232733085752,-0.0009342078119516373,53.290720333345234
2025-10-06 13:48:22.082678,9.752134199738503,0.19222469296306371,-1.0464425638318062,53.42972833334352,-0.056197004914283755,-0.005113773811608553,0.00670441746711731,53.42972833334352,9.692943420410156,0.18920654296875,-1.0377919006347658,53.42972833334352,0.0011571459472179413,-0.000252916244789958,-0.0004802732728421688,53.42972833334352
2025-10-06 13:48:22.205890,9.75211724281311,0.19240054797381165,-1.0465736876428129,53.55880808332586,-0.06456144690513611,0.0029432690888643266,0.008332136124372483,53.55880808332586,9.694140930175783,0.19444564819335938,-1.0370434570312501,53.55880808332586,0.0004160781390964985,-0.0003532653790898621,0.00026857852935791016,53.55880808332586
2025-10-06 13:48:22.330340,9.752047660946847,0.1921408585086465,-1.0472628550976515,53.677958083339036,-0.06060112774372101,-0.005928089953958988,0.008124121427536012,53.677958083339036,9.692943420410156,0.18561401367187502,-1.0439291381835938,53.677958083339036,0.0014677457511425018,-0.00104504672344774,-0.0002902252599596977,53.677958083339036
2025-10-06 13:48:22.457935,9.752066372036934,0.19201236594468357,-1.0471211332082748,53.80703708334477,-0.06166649043560028,0.0010860837623476983,-0.001898152381181717,53.80703708334477,9.696386260986328,0.19669097900390625,-1.0470726013183593,53.80703708334477,-0.0031996681354939938,-0.0006595501909032464,-0.0023384345695376396,53.80703708334477
2025-10-06 13:48:22.584299,9.751993281841278,0.1923833535052836,-1.0477315094321966,53.93611708332901,-0.05770149350166321,-0.006918992009013892,0.01323210284113884,53.93611708332901,9.69548812866211,0.18621276855468752,-1.0330018615722656,53.93611708332901,-0.00019472837448120117,-0.0006735609495081007,0.0004593711346387863,53.93611708332901
2025-10-06 13:48:22.710584,9.752013162374498,0.19213206941261887,-1.0475745847821236,54.05526708334219,-0.0572746467590332,-0.00532056424766779,-0.00039629504084587097,54.05526708334219,9.691147155761719,0.18755996704101563,-1.0469229125976562,54.05526708334219,0.00026487279683351517,-0.0005660993047058582,-0.0003681732341647148,54.05526708334219
2025-10-06 13:48:22.841866,9.75193773329258,0.19236926537007096,-1.0482360510528088,54.18434708332643,-0.06198867201805115,-0.011844668202102185,0.005953708067536354,54.18434708332643,9.687854003906251,0.18052459716796876,-1.0419831848144532,54.18434708332643,-2.385396510362625e-05,-0.003095384920015931,-0.002185570076107979,54.18434708332643
2025-10-06 13:48:22.962179,9.751874583363534,0.19260479852557183,-1.048774579614401,54.31342608333216,-0.05908202111721039,-0.0017517161741852762,0.0021507520973682403,54.31342608333216,9.69309310913086,0.19025436401367188,-1.0490185546875002,54.31342608333216,-0.0003553219139575958,0.0006141035701148212,-7.627531886100769e-07,54.31342608333216
2025-10-06 13:48:23.081441,9.751832483410835,0.19262736512348058,-1.0491770142316819,54.43257608334534,-0.06143377125263214,0.0030158111080527306,0.008690131902694702,54.43257608334534,9.692344665527344,0.19489471435546876,-1.045276336669922,54.43257608334534,-0.0016339272260665894,0.000500508351251483,-0.0020364108495414257,54.43257608334534
2025-10-06 13:48:23.220676,9.751857626438142,0.19255083968862893,-1.0489607403427363,54.561656458332436,-0.06430183053016662,-0.000799606740474701,0.011767960041761399,54.561656458332436,9.692045288085938,0.19085311889648438,-1.0389894104003907,54.561656458332436,-0.0043994043953716755,0.0007689702324569225,-0.0025895461440086365,54.561656458332436
2025-10-06 13:48:23.342709,9.751861134767532,0.19226949725300074,-1.048974408209324,54.69073545833817,-0.06116304516792297,-0.0026138881221413612,0.00863750696182251,54.69073545833817,9.690997467041017,0.18905685424804688,-1.0397378540039064,54.69073545833817,0.0005329009145498276,0.0007799898739904165,-0.0007046177051961422,54.69073545833817
2025-10-06 13:48:23.467703,9.751830144524575,0.19249364661052823,-1.0492090277373791,54.809886458329856,-0.06128232836723328,-0.0014908755384385587,0.008124194517731668,54.809886458329856,9.693392486572266,0.18965560913085938,-1.0427316284179688,54.809886458329856,-0.0013244426809251308,-0.0003506620414555073,-0.0014251763932406902,54.809886458329856
2025-10-06 13:48:23.596405,9.751882769465446,0.19245333736762404,-1.0487457089871168,54.93896545833559,-0.0653747946023941,-0.007438096851110459,0.0019727043807506563,54.93896545833559,9.685758361816406,0.18606307983398437,-1.0449769592285156,54.93896545833559,0.001708565279841423,-0.0009594611474312842,-0.0005305074155330658,54.93896545833559
2025-10-06 13:48:23.723648,9.751844177842141,0.19179943593218923,-1.049211805164814,55.068045458348934,-0.0621939092874527,-0.006933847591280937,0.012317744493484498,55.068045458348934,9.689949645996094,0.18142272949218752,-1.0318043518066407,55.068045458348934,-0.001677634660154581,0.0005310745909810066,-0.0018598735332489014,55.068045458348934
2025-10-06 13:48:23.850111,9.751857626438142,0.19184826018288734,-1.0490885750949384,55.19712445832556,-0.06100984811782837,0.0042440004833042624,0.00126767635345459,55.19712445832556,9.687854003906251,0.19070343017578126,-1.0470726013183593,55.19712445832556,0.0010216925293207169,0.0011506235459819436,0.000590332318097353,55.19712445832556
2025-10-06 13:48:23.992237,9.751909666657449,0.19171013798564673,-1.0486224789172411,55.34606245832401,-0.05672091543674469,-0.0002582642063498497,0.006339551210403443,55.34606245832401,9.689500579833984,0.18531463623046876,-1.0376422119140625,55.34606245832401,0.0005187205970287323,0.0004960877704434097,0.00045329658314585686,55.34606245832401
2025-10-06 13:48:24.115030,9.751924869418145,0.1914677343517542,-1.0485162788629532,55.46521245833719,-0.05973047733306885,-0.0034587011486291886,0.010275969877839089,55.46521245833719,9.689949645996094,0.18336868286132812,-1.039288787841797,55.46521245833719,0.0007583778351545334,-0.0008144815219566226,0.0009353116620332003,55.46521245833719
