timestamp,gravity_x,gravity_y,gravity_z,gravity_time,lin_acc_x,lin_acc_y,lin_acc_z,lin_acc_time,acc_x,acc_y,acc_z,acc_time,gyro_x,gyro_y,gyro_z,gyro_time
2025-10-06 13:45:01.078217,-9.744488965272904,-0.32716805141419175,-1.0835050671547652,5.1625104999984615,-0.024196363091468814,-0.006188693046569825,-0.0077252682298421865,5.1625104999984615,-9.765093383789063,-0.3333567810058594,-1.0928773498535156,5.1625104999984615,-0.002701310208067298,-0.00013717904221266508,0.0013205951545387506,5.1625104999984615
2025-10-06 13:45:01.207689,-9.744482533335686,-0.3271310312300921,-1.08357581846416,5.291587500018068,-0.025699682235717773,0.0005103157460689545,-0.0036135061830282213,5.291587500018068,-9.771380310058595,-0.326920166015625,-1.0874885559082033,5.291587500018068,0.0007267030887305737,-0.0017636010888963938,0.00021782144904136658,5.291587500018068
2025-10-06 13:45:01.335147,-9.744462068080903,-0.3267632048204541,-1.083884405270219,5.4206635000009555,-0.026620033979415893,-0.004498007185757161,-0.0013590390980243684,5.4206635000009555,-9.771529998779297,-0.33066238403320314,-1.08494384765625,5.4206635000009555,0.0008252905681729317,-9.994115680456161e-05,0.00011816341429948807,5.4206635000009555
2025-10-06 13:45:01.478406,-9.744459729194642,-0.326978565081954,-1.0838377737253906,5.5695974999980535,-0.027669024467468262,-0.00712662298232317,-0.008441040515899658,5.5695974999980535,-9.772877197265625,-0.3347039794921875,-1.0925779724121094,5.5695974999980535,-0.00044927187263965607,-0.00020643489551730454,-0.0002876138314604759,5.5695974999980535
2025-10-06 13:45:01.614668,-9.744488965272904,-0.3270644095167518,-1.0835571804642679,5.708602500002598,-0.028539090156555178,-0.003298633620142937,0.002654489725828171,5.708602500002598,-9.771979064941407,-0.33126113891601566,-1.0835966491699218,5.708602500002598,0.00044738641008734703,0.001373584265820682,-0.0003356155939400196,5.708602500002598
2025-10-06 13:45:01.736063,-9.744424061179162,-0.3273471223935485,-1.0840369445085527,5.827750500000548,-0.03174570322036743,-0.006758065670728684,-0.007642237767577172,5.827750500000548,-9.775272216796875,-0.3315605163574219,-1.0918295288085937,5.827750500000548,-0.0014552935026586056,0.00014161167200654745,0.0014281279873102903,5.827750500000548
2025-10-06 13:45:01.862733,-9.744435755610466,-0.327353590875864,-1.0839371763914825,5.956826500012539,-0.029638951420783998,-0.0004646709188818932,-0.0016056454181671144,5.956826500012539,-9.774972839355469,-0.3276686096191406,-1.085991668701172,5.956826500012539,-0.002169062150642276,0.0009159338660538197,-0.0006698723882436752,5.956826500012539
2025-10-06 13:45:01.987225,-9.744414705634117,-0.32756949931383134,-1.084071881622076,6.075973083352437,-0.029511482119560242,-0.0009972791746258737,0.002869667261838913,6.075973083352437,-9.77452377319336,-0.32841705322265624,-1.0819500732421876,6.075973083352437,0.0010322821326553822,0.0017980877310037613,0.0003442242741584778,6.075973083352437
2025-10-06 13:45:02.126431,-9.744407688975334,-0.32730330482125286,-1.0841966465860606,6.20505008334294,-0.024127950668334962,-0.0036584201082587244,-0.004938485249876976,6.20505008334294,-9.768386535644531,-0.33066238403320314,-1.0922785949707032,6.20505008334294,-0.0027761405799537897,-0.00039647711673751473,0.00308606936596334,6.20505008334294
2025-10-06 13:45:02.247332,-9.744421137571335,-0.327076469399035,-1.084142194390297,6.334126083354931,-0.03324551403522492,-0.010022493079304695,0.0015940240770578385,6.334126083354931,-9.778715057373047,-0.33410522460937503,-1.0831475830078126,6.334126083354931,-0.0016843555495142937,-0.00035114094498567283,-0.0001176781952381134,6.334126083354931
2025-10-06 13:45:02.370058,-9.744369682073593,-0.3264387939870358,-1.0847997868806125,6.463202083337819,-0.022519381642341615,-0.0013794678077101708,-0.006131317242980004,6.463202083337819,-9.767638092041016,-0.3279679870605469,-1.0915301513671876,6.463202083337819,-0.0023103952407836914,-0.000989218708127737,-0.0029306625947356224,6.463202083337819
2025-10-06 13:45:02.516587,-9.744328166842461,-0.3267864109575749,-1.0850720478594305,6.6022080833499786,-0.029896228909492496,-0.0056722377240657805,-0.013493034839630127,6.6022080833499786,-9.776170349121093,-0.33126113891601566,-1.0988648986816407,6.6022080833499786,-0.0026532902847975492,0.0010616893414407969,0.0033572744578123093,6.6022080833499786
2025-10-06 13:45:02.648860,-9.74426560163498,-0.326965189576149,-1.0855802439898252,6.741213083354523,-0.02816252946853638,-0.005942561812698841,0.007821235656738281,6.741213083354523,-9.76733871459961,-0.3330574035644531,-1.0785072326660157,6.741213083354523,-0.001045761164277792,0.0006659966893494129,0.001879554707556963,6.741213083354523
2025-10-06 13:45:02.784748,-9.744320565462113,-0.3270784428343177,-1.0850558218359947,6.870289083337411,-0.014485892057418823,-0.008523668982088567,-0.006474037170410157,6.870289083337411,-9.759854278564454,-0.33290771484375004,-1.0924282836914063,6.870289083337411,-0.0005227318033576012,-0.0004359944723546505,0.0007170932367444038,6.870289083337411
2025-10-06 13:45:02.902029,-9.744348632097244,-0.3272656268253923,-1.0847397067397833,6.98943608335685,-0.028677669167518616,-0.00818679627031088,-0.0003542681783437729,6.98943608335685,-9.77302688598633,-0.3350033569335938,-1.0864407348632814,6.98943608335685,0.0016111945733428001,0.0015444564633071423,-0.00020083971321582794,6.98943608335685
2025-10-06 13:45:03.050103,-9.744387223720551,-0.32754081141203645,-1.0843259431421757,7.138372833345784,-0.02774269938468933,-0.001025967076420784,-0.006754849702119828,7.138372833345784,-9.7716796875,-0.3276686096191406,-1.0918295288085937,7.138372833345784,0.00047516264021396637,0.0004447346436791122,0.0008598354179412127,7.138372833345784
2025-10-06 13:45:03.194060,-9.744388977885247,-0.3275643099099398,-1.0842899096757175,7.277378833328839,-0.02564413368701935,0.002440408542752266,-0.012179750204086305,7.277378833328839,-9.769434356689453,-0.3254232788085938,-1.0963201904296875,7.277378833328839,0.002621755003929138,0.0008926526643335819,0.001731992233544588,7.277378833328839
2025-10-06 13:45:03.322208,-9.744369097352028,-0.3273141221702099,-1.0845566888898612,7.406454833340831,-0.027910514473915102,0.00039391960948705675,-0.011613885909318925,7.406454833340831,-9.771979064941407,-0.3255729675292969,-1.0948233032226562,7.406454833340831,0.00338723324239254,0.001308800419792533,0.002082844963297248,7.406454833340831
2025-10-06 13:45:03.453412,-9.744362080693245,-0.32754132304340605,-1.0845371007174254,7.535530833352823,-0.03450208067893982,0.003016249649226666,-0.0025025352090597155,7.535530833352823,-9.78021194458008,-0.3242257690429688,-1.0873388671875,7.535530833352823,0.0009237481281161308,-0.0014942334964871407,-0.001327169593423605,7.535530833352823
2025-10-06 13:45:03.579855,-9.74439599454403,-0.327315583974123,-1.084306135699153,7.674535833357368,-0.024289918541908265,-0.010681583918631077,-0.0019845449924468994,7.674535833357368,-9.767787780761719,-0.33859588623046877,-1.088386688232422,7.674535833357368,0.00047919200733304024,0.00033507647458463907,0.0007501095533370972,7.674535833357368
2025-10-06 13:45:03.711316,-9.744393655657769,-0.32695598021149636,-1.0844309006631374,7.8036118333402555,-0.019501633644104004,-0.005203254483640194,0.0006841973215341568,7.8036118333402555,-9.763446807861328,-0.33290771484375004,-1.08494384765625,7.8036118333402555,-0.00031652161851525307,-0.0007490940624848008,0.001287427730858326,7.8036118333402555
2025-10-06 13:45:03.836187,-9.744451543092728,-0.32684579674154524,-1.0839451432228089,7.922759833338205,-0.02303686022758484,-0.003217832408845425,-0.0074353194236755375,7.922759833338205,-9.767638092041016,-0.3288661193847656,-1.0915301513671876,7.922759833338205,-7.061287760734558e-06,-0.00030898433760739863,-0.0008400282822549343,7.922759833338205
2025-10-06 13:45:03.955571,-9.74450299859047,-0.32648118630051615,-1.083589413240552,8.051833833334967,-0.01535069525241852,-0.0013371120393276216,-0.006144181117415428,8.051833833334967,-9.76254867553711,-0.3255729675292969,-1.089584197998047,8.051833833334967,0.00023189280182123184,0.0001311718369834125,0.002888177987188101,8.051833833334967
2025-10-06 13:45:04.097772,-9.744581936001778,-0.32588805936276916,-1.0830619943886997,8.18090983334696,-0.02530148684978485,-0.0032774374634027483,-0.013557354211807251,8.18090983334696,-9.769284667968751,-0.3297642517089844,-1.0984158325195312,8.18090983334696,-0.0047821179032325745,0.00014775950694456697,-0.00036123162135481834,8.18090983334696
2025-10-06 13:45:04.225215,-9.74458427488804,-0.32585666712373496,-1.0830369244515896,8.319914833351504,-0.021704864501953126,-0.005554087422788143,-0.0020568311959505083,8.319914833351504,-9.768087158203125,-0.3315605163574219,-1.0838960266113282,8.319914833351504,0.0008837985806167126,0.00040010781958699226,-6.881356239318848e-05,8.319914833351504
2025-10-06 13:45:04.349301,-9.744548022150994,-0.32626498550176625,-1.0832447929680349,8.439061833341839,-0.03087329864501953,-0.009636467210948468,-0.013823914155364037,8.439061833341839,-9.77452377319336,-0.3351530456542969,-1.093326416015625,8.439061833341839,0.0002420409582555294,0.0013688228791579604,-0.0007378975860774517,8.439061833341839
2025-10-06 13:45:04.486799,-9.744483702778817,-0.326490139849484,-1.0837776204943657,8.568138833332341,-0.03049030601978302,0.0007674470543861389,-0.005956120043992996,8.568138833332341,-9.774823150634766,-0.3263214111328125,-1.089584197998047,8.568138833332341,0.00014309072867035866,0.00016136036720126867,-0.0012428895570337772,8.568138833332341
2025-10-06 13:45:04.614633,-9.744449788928032,-0.32687415573745965,-1.0839536947757007,8.707143833336886,-0.037708109021186834,0.0039955851808190345,-0.010720285177230835,8.707143833336886,-9.782157897949219,-0.32332763671875003,-1.0942245483398438,8.707143833336886,0.000501836184412241,0.0014961534179747105,0.0012223140802234411,8.707143833336886
2025-10-06 13:45:04.744347,-9.744407104253769,-0.32739357121288776,-1.0841858292371036,8.836219833348878,-0.03086511254310608,0.001371574066579342,-0.010038499832153321,8.836219833348878,-9.772727508544923,-0.32587234497070316,-1.094673614501953,8.836219833348878,0.00023994361981749535,0.0010534394532442093,-0.0008520497940480709,8.836219833348878
2025-10-06 13:45:04.866479,-9.744443356990814,-0.32684714891016486,-1.0840318281948567,8.955366833339212,-0.03038096308708191,-0.00621029119938612,-0.0031576426327228546,8.955366833339212,-9.772428131103515,-0.33171020507812504,-1.0856922912597657,8.955366833339212,-0.0006197053007781506,0.0007143362308852375,-0.0014116358943283558,8.955366833339212
2025-10-06 13:45:04.992885,-9.74446850001812,-0.3268574911728501,-1.0837984512001277,9.084442458348349,-0.03394834935665131,-6.271138787269592e-05,-0.01162324145436287,9.084442458348349,-9.778715057373047,-0.3255729675292969,-1.0918295288085937,9.084442458348349,-0.003378799185156822,0.0003532034461386502,0.0001374916173517704,9.084442458348349
2025-10-06 13:45:05.116640,-9.744417629241944,-0.3266209712997079,-1.0843001423031091,9.203589458338683,-0.027409992814064026,-0.0025444524362683296,-0.011121184900403024,9.203589458338683,-9.770931243896484,-0.3266207885742188,-1.0966195678710937,9.203589458338683,0.000542808324098587,0.0017896542558446527,0.00024083489552140236,9.203589458338683
2025-10-06 13:45:05.232502,-9.744423476457596,-0.3266092037782073,-1.084273829832673,9.322737458336633,-0.03384251475334168,0.00028782919049263,7.835268974304199e-05,9.322737458336633,-9.779463500976563,-0.3303630065917969,-1.0834469604492187,9.322737458336633,0.0015454655513167381,-0.001200434984639287,0.0010818848386406898,9.322737458336633
2025-10-06 13:45:05.367304,-9.744403595924378,-0.32634955085814,-1.0845198514312506,9.461742458341178,-0.023383015394210817,0.00242319580167532,-0.010752883404493332,9.461742458341178,-9.767787780761719,-0.3219804382324219,-1.0961705017089844,9.461742458341178,-0.0005421419627964497,-0.0005437519866973162,-0.0016164612025022507,9.461742458341178
2025-10-06 13:45:05.506980,-9.744351555705071,-0.32625040400773286,-1.0850167916715145,9.600747458345722,-0.029272915720939638,-0.007405681349337102,-0.014147776812314989,9.600747458345722,-9.773925018310548,-0.33260833740234375,-1.0990145874023438,9.600747458345722,-0.0007920851930975914,-0.000849192205350846,0.0009135187137871981,9.600747458345722
2025-10-06 13:45:05.644761,-9.744333429336548,-0.32626271970570087,-1.0851733508706094,9.739752458350267,-0.021656917333602907,0.004282318018376827,-0.008003522604703904,9.739752458350267,-9.767039337158204,-0.3243754577636719,-1.0913804626464845,9.739752458350267,0.001361392904073,0.0007277061813510954,0.001286633312702179,9.739752458350267
2025-10-06 13:45:05.788947,-9.744303023815155,-0.326841594055295,-1.0852908068150282,9.878757458354812,-0.03456289172172546,-0.0038208265230059626,-0.006688191443681718,9.878757458354812,-9.780062255859375,-0.33066238403320314,-1.0925779724121094,9.878757458354812,0.0007056808099150658,-0.0020016138441860676,-0.0024993992410600185,9.878757458354812
2025-10-06 13:45:05.934964,-9.744319396018982,-0.32753189440816644,-1.0849275485426189,10.017762458330253,-0.01658270359039307,0.0009111058339476586,-0.017979018688201905,10.017762458330253,-9.763446807861328,-0.3263214111328125,-1.1045530700683595,10.017762458330253,0.00010436074808239937,0.00046189024578779936,-0.0024590487591922283,10.017762458330253
2025-10-06 13:45:06.071405,-9.744386638998986,-0.32715511444956064,-1.0844481499493122,10.15676758333575,-0.03462896525859833,0.007420007027685643,-0.01830894783139229,10.15676758333575,-9.779014434814453,-0.32168106079101566,-1.1002120971679688,10.15676758333575,-0.0007670060731470585,-8.944520959630609e-05,-0.00015879375860095024,10.15676758333575
2025-10-06 13:45:06.195976,-9.744477855563165,-0.3272596334293485,-1.0835815194994212,10.275914583355188,-0.022710585594177247,-0.005198978707194328,-0.007349876984953881,10.275914583355188,-9.766141204833986,-0.33320709228515627,-1.0922785949707032,10.275914583355188,0.001321735791862011,-0.00229383516125381,-0.0012139193713665009,10.275914583355188
2025-10-06 13:45:06.316159,-9.744429323673248,-0.32697005007416013,-1.084099728986621,10.404990583338076,-0.028746666312217714,0.006486535593867302,-0.010574031695723534,10.404990583338076,-9.773625640869142,-0.31853759765625,-1.0961705017089844,10.404990583338076,-0.0009106872603297234,-0.0022361665032804012,0.00326929590664804,10.404990583338076
2025-10-06 13:45:06.446168,-9.744492473602296,-0.32725119151175025,-1.0834483491629363,10.534066583350068,-0.030330092310905457,-0.008201195038855077,-0.013171364888548852,10.534066583350068,-9.77302688598633,-0.335302734375,-1.0975177001953125,10.534066583350068,-0.0007463330402970314,0.0005702468333765864,-0.0005615758709609509,10.534066583350068
2025-10-06 13:45:06.563273,-9.74445388197899,-0.32744561143219475,-1.0837409292161466,10.653214583348017,-0.03066806137561798,-0.006210510469973088,-0.012579626664519311,10.653214583348017,-9.773326263427736,-0.33320709228515627,-1.0969189453125001,10.653214583348017,-0.0007678354158997536,-0.0020273930858820677,0.0004080571234226227,10.653214583348017
2025-10-06 13:45:06.697579,-9.744493643045425,-0.32748705357313157,-1.083368315398693,10.792219583352562,-0.026437016129493715,-0.0016784067079424858,-0.015645906552672388,10.792219583352562,-9.771080932617188,-0.3309617614746094,-1.0988648986816407,10.792219583352562,-0.0011209428776055574,0.00029959960374981165,-0.0005599181167781353,10.792219583352562
2025-10-06 13:45:06.816754,-9.744578427672387,-0.3270771272107959,-1.082722563520074,10.901437583350344,-0.027249779105186465,-0.006129928529262543,-0.012549148052930833,10.901437583350344,-9.771529998779297,-0.33290771484375004,-1.0934761047363282,10.901437583350344,-0.0016460076440125704,-0.0037936181761324406,-0.0005732807330787182,10.901437583350344
2025-10-06 13:45:06.933295,-9.744587198495866,-0.3267100317031145,-1.0827657598257066,11.020584583340678,-0.025445913076400758,-0.0027548425644636156,-0.013854392766952515,11.020584583340678,-9.768087158203125,-0.32901580810546877,-1.095721435546875,11.020584583340678,0.0009480277076363564,-0.0005756577011197805,0.00187386991456151,11.020584583340678
2025-10-06 13:45:07.053746,-9.744591876268387,-0.32680044427514077,-1.082695593237877,11.139731500006747,-0.03008158564567566,-0.005658204406499863,-0.00958358645439148,11.139731500006747,-9.775721282958985,-0.3333567810058594,-1.0904823303222657,11.139731500006747,6.896490231156349e-05,0.0001832321286201477,-0.0007573375478386879,11.139731500006747
2025-10-06 13:45:07.174591,-9.744613510966301,-0.3267693078517914,-1.0825183495134116,11.258879500004696,-0.030658705830574038,-0.004042764902114868,-0.016496164798736574,11.258879500004696,-9.774823150634766,-0.3333567810058594,-1.095721435546875,11.258879500004696,0.0021111485548317432,0.00020310439867898822,-9.781448170542717e-05,11.258879500004696
2025-10-06 13:45:07.296724,-9.744569072127343,-0.3270910143479705,-1.0828012085705996,11.387955500016687,-0.025911351442337038,-0.005816627405583859,-0.01172227866947651,11.387955500016687,-9.769883422851564,-0.33215927124023437,-1.0961705017089844,11.387955500016687,0.0007200324907898903,-0.00030901801073923707,-0.0014050016179680824,11.387955500016687
2025-10-06 13:45:07.421654,-9.744528726339341,-0.3273607537150383,-1.0830981009453535,11.507102500007022,-0.030144735574722293,-0.0009066107869148255,-0.015017988681793213,11.507102500007022,-9.773775329589844,-0.32871643066406253,-1.0969189453125001,11.507102500007022,0.0020177671685814857,0.0016909183468669653,-0.0007716617546975613,11.507102500007022
2025-10-06 13:45:07.551617,-9.744519370794297,-0.3270395953953266,-1.083260434269905,11.636178500019014,-0.02790700614452362,-0.003622715547680855,-0.007520469501614571,11.636178500019014,-9.774823150634766,-0.3299139404296875,-1.0912307739257814,11.636178500019014,5.198176950216293e-06,0.0013560985680669546,0.0006850701756775379,11.636178500019014
2025-10-06 13:45:07.667689,-9.744518786072732,-0.32766009461134676,-1.08307931676507,11.755325500009349,-0.026859769821166994,-0.0012059516832232475,-0.005306713655591011,11.755325500009349,-9.771529998779297,-0.32871643066406253,-1.089584197998047,11.755325500009349,-0.000673776026815176,0.000542821770068258,-0.0009264694526791573,11.755325500009349
2025-10-06 13:45:07.790985,-9.744505922198297,-0.3279391529783607,-1.0831225130707025,11.88440150002134,-0.019689329266548157,-0.004818873144686223,-0.013047477006912233,11.88440150002134,-9.766440582275392,-0.3311114501953125,-1.0960208129882814,11.88440150002134,0.0003364989534020424,0.00048670091200619936,0.0015693733002990484,11.88440150002134
2025-10-06 13:45:07.907159,-9.744551530480384,-0.3276513603329659,-1.0827959460765124,11.993619500019122,-0.026977883577346803,-0.006603516452014447,-0.007836365327239038,11.993619500019122,-9.771979064941407,-0.33215927124023437,-1.0892848205566408,11.993619500019122,0.002738263923674822,-0.00037354257074184716,0.00014918390661478043,11.993619500019122
2025-10-06 13:45:08.030353,-9.74453983604908,-0.3280013892799616,-1.082803474366665,12.112767583341338,-0.022649189829826357,0.00048250492662191394,-0.02040210485458374,12.112767583341338,-9.766590270996094,-0.32677047729492187,-1.0999127197265626,12.112767583341338,0.00012809690088033676,0.00015304761473089457,-0.0022276919335126877,12.112767583341338
2025-10-06 13:45:08.150268,-9.744541005492211,-0.3283961494266987,-1.0826626295596362,12.24184358335333,-0.023694671988487244,-0.0034637078270316124,-0.0070714764297008514,12.24184358335333,-9.767787780761719,-0.3311114501953125,-1.0889854431152344,12.24184358335333,0.001317648682743311,0.00285213440656662,0.00026898737996816635,12.24184358335333
2025-10-06 13:45:08.280194,-9.744514693021776,-0.32829371351748704,-1.0829316745698452,12.370919583336217,-0.02701413631439209,0.001672998033463955,-0.010993788689374924,12.370919583336217,-9.771979064941407,-0.32482452392578126,-1.0951226806640626,12.370919583336217,-0.000709836371243,0.0010010709520429373,-0.0005530798807740211,12.370919583336217
2025-10-06 13:45:08.411172,-9.74455854713917,-0.32800146237015726,-1.082634416744113,12.499995583348209,-0.035503708720207215,-0.013737886995077133,-0.015931323766708375,12.499995583348209,-9.780511322021486,-0.3396437072753906,-1.0982661437988281,12.499995583348209,-0.00011640787124633789,-0.0010823175543919206,-0.00023395707830786705,12.499995583348209
2025-10-06 13:45:08.531789,-9.744515862464905,-0.3280372765660286,-1.0829871500283481,12.619142583338544,-0.022671409249305725,0.003811580613255501,-0.015278555229306223,12.619142583338544,-9.767488403320312,-0.3255729675292969,-1.099463653564453,12.619142583338544,0.0014603394083678722,-0.0028813518583774567,-0.00015449430793523788,12.619142583338544
2025-10-06 13:45:08.653021,-9.744532819390297,-0.32821576282382015,-1.08281516879797,12.738289583328879,-0.02984243452548981,-0.0002013634890317917,-0.013953941613435746,12.738289583328879,-9.773326263427736,-0.32826736450195315,-1.096769256591797,12.738289583328879,0.0005712667480111122,-0.0007070036372169852,0.00014535710215568542,12.738289583328879
2025-10-06 13:45:08.777450,-9.744570826292039,-0.3280851506441832,-1.0825156451761724,12.86736558334087,-0.027559096813201907,0.001015259362757206,-0.005721061974763871,12.86736558334087,-9.771829376220703,-0.3273692321777344,-1.0877879333496094,12.86736558334087,0.0013530622236430645,0.0004828431410714984,0.001360706752166152,12.86736558334087
2025-10-06 13:45:08.896885,-9.7445866137743,-0.327876003049314,-1.082418654486537,12.98651358333882,-0.030835291743278505,-0.0005410136282444001,-0.013601793050765991,12.98651358333882,-9.777218170166016,-0.32781829833984377,-1.0970686340332032,12.98651358333882,-0.0029554329812526703,0.000528954085893929,-0.0019960394129157066,12.98651358333882
2025-10-06 13:45:09.018269,-9.744628129005433,-0.3278474247828126,-1.0820624128729106,13.105660333356354,-0.02510677456855774,-0.003264061957597733,-0.010815156251192094,13.105660333356354,-9.771080932617188,-0.3323089599609375,-1.0928773498535156,13.105660333356354,-7.733702659606934e-06,-0.0042704371735453606,-0.001301321666687727,13.105660333356354
2025-10-06 13:45:09.139714,-9.744619358181954,-0.32808050941675904,-1.0820741803944112,13.234736333339242,-0.02900745213031769,-0.0004862690716981888,-0.013198481351137163,13.234736333339242,-9.772278442382813,-0.3261717224121094,-1.0960208129882814,13.234736333339242,0.0011133933439850807,-0.0010117195779457688,-0.0007062884978950024,13.234736333339242
2025-10-06 13:45:09.267363,-9.744609417915346,-0.3278759665042162,-1.0822176564484836,13.353883333329577,-0.034704394340515136,0.0014048666507005692,-0.011258229017257692,13.353883333329577,-9.777966613769532,-0.32482452392578126,-1.0937754821777343,13.353883333329577,-0.0007714545354247093,0.0001348413061350584,0.0009814382065087557,13.353883333329577
2025-10-06 13:45:09.403555,-9.74457199573517,-0.32771366972476246,-1.0826132205873729,13.492888333334122,-0.020522557497024536,0.003487864136695862,6.417319178581238e-05,13.492888333334122,-9.763297119140626,-0.3243754577636719,-1.0831475830078126,13.492888333334122,0.000795343890786171,0.0024940338917076588,0.000889152055606246,13.492888333334122
2025-10-06 13:45:09.524883,-9.744595969319343,-0.32729614198207857,-1.0825026351213456,13.61203533335356,-0.024239047765731814,-0.00231838446110487,-0.005434329137206078,13.61203533335356,-9.769584045410157,-0.3315605163574219,-1.0880873107910156,13.61203533335356,0.0007743621245026588,0.000598607468418777,-0.0010280651040375233,13.61203533335356
2025-10-06 13:45:09.650575,-9.744549191594125,-0.3274783192947507,-1.0828821194171907,13.73118333335151,-0.024286410212516787,-0.004980292841792107,-0.006103323698043823,13.73118333335151,-9.768685913085937,-0.3342549133300781,-1.088386688232422,13.73118333335151,0.0019289562478661537,0.003001841250807047,-0.0010214210487902164,13.73118333335151
2025-10-06 13:45:09.773764,-9.744552699923515,-0.3271294963359833,-1.0829467311501504,13.860259333334398,-0.024132628440856934,-0.005478804521262646,-0.014571188315749169,13.860259333334398,-9.767488403320312,-0.3323089599609375,-1.0963201904296875,13.860259333334398,0.00023246463388204575,-0.000659410550724715,6.62761740386486e-05,13.860259333334398
2025-10-06 13:45:09.914282,-9.744556792974473,-0.3273159859701991,-1.0828660395741463,13.999264333338942,-0.029219706058502198,-0.003047057166695595,-0.0020782466232776645,13.999264333338942,-9.775571594238281,-0.33171020507812504,-1.0841954040527344,13.999264333338942,0.00015971064567565918,7.04180565662682e-05,0.0018580914475023746,13.999264333338942
2025-10-06 13:45:10.053809,-9.74454977631569,-0.32730703242123127,-1.0829148638248445,14.138269958348246,-0.024584033489227296,-0.005151579715311528,0.0069524855911731725,14.138269958348246,-9.769883422851564,-0.3320095825195313,-1.0794053649902344,14.138269958348246,-0.00027928687632083893,0.0017583968583494425,0.00013437122106552124,14.138269958348246
2025-10-06 13:45:10.180096,-9.744522294402122,-0.32759665232151747,-1.0830733964592218,14.267345958331134,-0.027904667258262635,-0.0023172515630722045,-0.01594053313136101,14.267345958331134,-9.77302688598633,-0.32826736450195315,-1.097966766357422,14.267345958331134,0.0005015605129301548,0.0005891169421374798,0.0003882013261318207,14.267345958331134
2025-10-06 13:45:10.301170,-9.744463822245597,-0.32742288038134576,-1.083662284165621,14.386492958350573,-0.026317732930183413,-0.0024910600483417514,-0.004125795364379883,14.386492958350573,-9.770931243896484,-0.33141082763671875,-1.0891351318359375,14.386492958350573,0.000412515364587307,-0.0010847097728401423,0.0014179698191583157,14.386492958350573
2025-10-06 13:45:10.440484,-9.74449305832386,-0.32754055559635165,-1.0833522355556489,14.53542695834767,-0.02299417555332184,-0.007163387350738049,-0.012369053810834885,14.53542695834767,-9.76584182739258,-0.33171020507812504,-1.09452392578125,14.53542695834767,0.00027905358001589775,-0.0002972523798234761,0.00010015256702899933,14.53542695834767
2025-10-06 13:45:10.583238,-9.744449788928032,-0.3276439416781068,-1.0837032146751882,14.674431958352216,-0.02872503161430359,-0.00436556775122881,-0.009473439529538155,14.674431958352216,-9.770332489013672,-0.33066238403320314,-1.091081085205078,14.674431958352216,0.002401540521532297,-0.00012709651491604745,0.0006681515369564295,14.674431958352216
2025-10-06 13:45:10.699226,-9.744457975029945,-0.32775584276765585,-1.0836179184168577,14.79357895834255,-0.02841922223567963,-0.004253739751875401,-0.006116187572479248,14.79357895834255,-9.771080932617188,-0.3320095825195313,-1.0901829528808595,14.79357895834255,0.001224844716489315,-0.00040553227881900966,-0.0014451113529503345,14.79357895834255
2025-10-06 13:45:10.847890,-9.744487795829773,-0.3271043898537755,-1.0835424162447453,14.93258495835471,-0.025994381904602053,3.4571662545204163e-05,-0.015022666454315187,14.93258495835471,-9.767937469482423,-0.3266207885742188,-1.0966195678710937,14.93258495835471,0.00037112412974238396,-0.003026197198778391,-0.0006653200834989548,14.93258495835471
2025-10-06 13:45:10.970459,-9.744488965272904,-0.32791912626475095,-1.0832955906540156,15.06166075001238,-0.018959012031555176,-0.0069346150383353235,-0.00673730805516243,15.06166075001238,-9.766440582275392,-0.3362008666992188,-1.091081085205078,15.06166075001238,0.0013572699390351772,0.0003456968115642667,0.0024799525272101164,15.06166075001238
2025-10-06 13:45:11.091275,-9.744434001445772,-0.32740976069122557,-1.0839248241484165,15.180807750002714,-0.02020914673805237,-0.0032525502517819407,-0.007455053776502609,15.180807750002714,-9.765991516113282,-0.33245864868164066,-1.0912307739257814,15.180807750002714,-0.00035320455208420753,0.0016722842119634151,0.0006081913597881794,15.180807750002714
2025-10-06 13:45:11.222834,-9.744466745853424,-0.32772481597959996,-1.0835438049584627,15.309883750014706,-0.027063252925872805,0.002900292053818703,-0.013524609804153443,15.309883750014706,-9.770931243896484,-0.3243754577636719,-1.0982661437988281,15.309883750014706,-0.0009978748857975006,-0.0021540147718042135,-9.494880214333534e-05,15.309883750014706
2025-10-06 13:45:11.355710,-9.744460898637772,-0.3278132185712457,-1.0835772802680732,15.438959749997593,-0.02871684551239014,-0.011231770366430284,-0.011096992045640946,15.438959749997593,-9.775272216796875,-0.3405418395996094,-1.094374237060547,15.438959749997593,-0.002042996697127819,7.351869135163724e-05,-0.00020890356972813606,15.438959749997593
2025-10-06 13:45:11.472800,-9.744438094496727,-0.32764109116047624,-1.0838306839764118,15.568035750009585,-0.03008567869663239,-0.006015030741691589,-0.005903348922729493,15.568035750009585,-9.771529998779297,-0.33635055541992187,-1.0876382446289063,15.568035750009585,-0.0009619053453207016,0.0005640103481709957,0.0010165013372898102,15.568035750009585
2025-10-06 13:45:11.591620,-9.744459144473076,-0.3276348054036498,-1.083631659373641,15.687183750007534,-0.033057818412780764,0.00041529849171638493,-0.0164306028932333,15.687183750007534,-9.779164123535157,-0.32901580810546877,-1.101708984375,15.687183750007534,0.0009310250170528889,-0.0009155347943305969,0.0002670544199645519,15.687183750007534
2025-10-06 13:45:11.713918,-9.744429323673248,-0.3276405429840088,-1.0839069901406766,15.80633074999787,-0.02305907964706421,-0.0048181056976318365,-0.014359592199325562,15.80633074999787,-9.766739959716798,-0.3320095825195313,-1.094673614501953,15.80633074999787,0.0006853337399661541,0.0021334956400096416,0.0010758049320429564,15.80633074999787
2025-10-06 13:45:11.834038,-9.744397163987161,-0.32778573665767907,-1.084161124750972,15.925477750017308,-0.021595521569252017,0.002362421303987503,-0.00946444943547249,15.925477750017308,-9.76584182739258,-0.3254232788085938,-1.0913804626464845,15.925477750017308,0.0004777638241648674,-0.0015882530715316534,-0.0007356395944952965,15.925477750017308
2025-10-06 13:45:11.958284,-9.744301854372026,-0.32806355249136687,-1.0849210435152055,16.044625750015257,-0.023485926389694215,-0.0005031894519925118,-0.011548250913619995,16.044625750015257,-9.768087158203125,-0.3285667419433594,-1.0939251708984377,16.044625750015257,-0.0009230012074112892,-0.0006695465417578816,2.223532646894455e-06,16.044625750015257
2025-10-06 13:45:12.079212,-9.744248644709588,-0.3278565976023674,-1.0854654923826457,16.16377295833081,-0.023838513493537904,0.0006370541453361512,-0.006064732074737549,16.16377295833081,-9.767787780761719,-0.3266207885742188,-1.0949729919433595,16.16377295833081,0.00026130443438887596,-0.00013124947145115584,-0.0008727256208658218,16.16377295833081
2025-10-06 13:45:12.206596,-9.744247475266457,-0.3279407244175673,-1.0854434191435576,16.302777958335355,-0.03237135529518127,-0.005266331322491169,-0.00039870701730251314,16.302777958335355,-9.77452377319336,-0.3359014892578125,-1.0877879333496094,16.302777958335355,-0.00040786806493997574,-0.002733139321208,-0.0014717504382133484,16.302777958335355
2025-10-06 13:45:12.329985,-9.744216485023498,-0.3280275555700064,-1.085693460702896,16.421924958354793,-0.032402345538139345,-0.0027845171838998795,-0.007932259663939477,16.421924958354793,-9.77691879272461,-0.32871643066406253,-1.093176727294922,16.421924958354793,0.0019069486297667027,-0.001612549414858222,0.0035603302530944347,16.421924958354793
2025-10-06 13:45:12.462369,-9.744191341996194,-0.32806154251098635,-1.0859244257211687,16.551001958345296,-0.020154767632484437,0.0012910286709666252,-0.007401551753282548,16.551001958345296,-9.764794006347657,-0.3251239013671875,-1.0928773498535156,16.551001958345296,0.0005047549493610859,0.0002742472861427814,0.0011354431044310331,16.551001958345296
2025-10-06 13:45:12.584386,-9.744205960035325,-0.32817746356129646,-1.0857413347810507,16.67014895833563,-0.026125944256782534,-0.004131423309445381,-0.011925907954573631,16.67014895833563,-9.770931243896484,-0.33410522460937503,-1.0978170776367189,16.67014895833563,-0.0011019764933735132,0.0007695642416365445,0.0007129756268113852,16.67014895833563
2025-10-06 13:45:12.704617,-9.744179647564888,-0.32825950730592013,-1.0859671834856273,16.799224958347622,-0.0197162264585495,-0.002253188006579876,-0.010951834917068482,16.799224958347622,-9.766141204833986,-0.329315185546875,-1.0963201904296875,16.799224958347622,0.0017522415146231651,-0.0003730033349711448,0.0009144223295152187,16.799224958347622
2025-10-06 13:45:12.838237,-9.744176139235497,-0.3281049580872059,-1.086047509610653,16.928301958338125,-0.0294506710767746,-0.004353727139532566,-0.00533280685544014,16.928301958338125,-9.772727508544923,-0.3299139404296875,-1.0924282836914063,16.928301958338125,0.0013729622587561607,0.0006227155681699514,-0.0005021919496357441,16.928301958338125
2025-10-06 13:45:12.964870,-9.74410187959671,-0.32854324344545605,-1.0865816527605057,17.0474480833509,-0.021741117238998416,0.0013236634433269501,-0.010785920172929765,17.0474480833509,-9.765542449951173,-0.3266207885742188,-1.099164276123047,17.0474480833509,0.0004198811948299408,-0.001344066928140819,0.0008157959673553705,17.0474480833509
2025-10-06 13:45:13.093835,-9.744094278216362,-0.3286226924881339,-1.086621706187725,17.186453083355445,-0.025789144635200503,-0.004584436342120171,-0.007752238512039185,17.186453083355445,-9.767937469482423,-0.33290771484375004,-1.0948233032226562,17.186453083355445,-0.001007099635899067,0.0011793659068644047,0.0003746356815099716,17.186453083355445
2025-10-06 13:45:13.219570,-9.74405510187149,-0.3287741353735328,-1.0869139207899572,17.305601083353395,-0.02522839665412903,0.0051471577584743505,-0.005214400738477707,17.305601083353395,-9.770332489013672,-0.3239263916015625,-1.0922785949707032,17.305601083353395,-0.0012606729287654161,0.00011770878336392343,-0.0022880551405251026,17.305601083353395
2025-10-06 13:45:13.335322,-9.743990197777748,-0.3290044425800443,-1.087418316230178,17.42474808334373,-0.024394583702087403,-0.005699463821947575,0.0018760060518980028,17.42474808334373,-9.768536224365235,-0.3339555358886719,-1.0864407348632814,17.42474808334373,-0.0012924389448016882,0.0009851184440776706,0.0013112747110426426,17.42474808334373
2025-10-06 13:45:13.460610,-9.743930556178093,-0.32907088156789543,-1.087961522564292,17.55382408335572,-0.023858394026756286,-0.0024896713346242907,-0.008509014397859574,17.55382408335572,-9.765542449951173,-0.3303630065917969,-1.0964698791503906,17.55382408335572,-0.001397214364260435,-0.0006268626893870533,0.0010901063214987516,17.55382408335572
2025-10-06 13:45:13.584703,-9.743939911723137,-0.3292602582648397,-1.0877915878593922,17.67297208335367,-0.02923490881919861,0.0021904766187071803,-0.006432887390255928,17.67297208335367,-9.770631866455078,-0.32407608032226565,-1.0942245483398438,17.67297208335367,0.0008345437236130238,-0.0004597347287926823,0.00013688765466213226,17.67297208335367
2025-10-06 13:45:13.724789,-9.743932895064354,-0.3296994207054377,-1.087736404761672,17.81197708332911,-0.02744741499423981,-0.00201078437268734,0.003990139961242676,17.81197708332911,-9.773176574707032,-0.3303630065917969,-1.084794158935547,17.81197708332911,0.0009347810409963131,-0.00012314724153839052,0.0020199797581881285,17.81197708332911
2025-10-06 13:45:13.846181,-9.743900150656701,-0.3298615347594023,-1.0879824263602496,17.931125083356164,-0.02957580149173737,-0.001848670318722725,-0.0014524483680725098,17.931125083356164,-9.772428131103515,-0.33141082763671875,-1.089584197998047,17.931125083356164,-0.0007423409260809422,-0.0007938979542814195,0.0012179587502032518,17.931125083356164
2025-10-06 13:45:13.970382,-9.743932310342789,-0.3296053901687265,-1.0877632288634778,18.06020170834381,-0.03328527510166168,-0.005846996381878853,-0.005113901719450951,18.06020170834381,-9.777667236328126,-0.3339555358886719,-1.0912307739257814,18.06020170834381,-3.316579386591911e-05,-0.001323095173574984,0.0002676257863640785,18.06020170834381
2025-10-06 13:45:14.096475,-9.743937572836876,-0.32969090569764375,-1.0876996403932573,18.189278708334314,-0.025945850014686585,-0.00037275999784469604,-0.006674011945724488,18.189278708334314,-9.768835601806641,-0.33006362915039067,-1.0925779724121094,18.189278708334314,0.00023224251344799995,-0.0018727374263107777,-0.0026078317314386368,18.189278708334314
2025-10-06 13:45:14.215244,-9.74391126036644,-0.3292907368764281,-1.0880567590892316,18.308425708353752,-0.028965936899185182,-0.0006231670081615448,0.003412435054779053,18.308425708353752,-9.774224395751954,-0.32946487426757814,-1.0852432250976562,18.308425708353752,-0.0007600346580147743,-0.0024555802810937166,0.0002518654800951481,18.308425708353752
2025-10-06 13:45:14.347747,-9.743835246562957,-0.32946319319307804,-1.0886734941601754,18.437502708344255,-0.03248362183570862,-0.0007501246780157089,-0.015430655926465989,18.437502708344255,-9.77452377319336,-0.3309617614746094,-1.1044033813476564,18.437502708344255,0.0018156622536480427,0.0020992073696106672,-0.0006357873789966106,18.437502708344255
2025-10-06 13:45:14.473732,-9.743773850798608,-0.3293216905742884,-1.0892668403685093,18.566578708356246,-0.028953073024749757,-0.001340693458914757,-0.003609997853636742,18.566578708356246,-9.772428131103515,-0.3303630065917969,-1.0937754821777343,18.566578708356246,-0.0006834059022367001,-0.0010121940867975354,-0.00199046079069376,18.566578708356246
2025-10-06 13:45:14.594981,-9.743775020241738,-0.3296841083094478,-1.08915157712996,18.68572570834658,-0.025509647727012634,0.00411114078015089,-0.002977402210235596,18.68572570834658,-9.768835601806641,-0.32602203369140625,-1.0904823303222657,18.68572570834658,-0.0002455199137330055,-0.0007951053557917476,-0.0009295754134654999,18.68572570834658
2025-10-06 13:45:14.736827,-9.743738182783128,-0.32962921757251024,-1.089496709033847,18.824731708329637,-0.033329713940620426,0.0019606444984674454,-0.009518024548888207,18.824731708329637,-9.777517547607422,-0.32871643066406253,-1.0985655212402343,18.824731708329637,-0.0017439739312976599,-0.0006567291566170752,0.0009465434122830629,18.824731708329637
2025-10-06 13:45:14.856137,-9.743751631379128,-0.32996466502547267,-1.0892852590978146,18.943878708349075,-0.0327180951833725,0.002146330140531063,-0.006286926269531251,18.943878708349075,-9.774823150634766,-0.3273692321777344,-1.096769256591797,18.943878708349075,0.0014194990508258343,-0.00038725946797057986,-0.002655338030308485,18.943878708349075
2025-10-06 13:45:14.977871,-9.743769173026086,-0.3305779648572207,-1.0889325989037753,19.072955750016263,-0.02940740168094635,0.004705619886517525,-0.009483014345169068,19.072955750016263,-9.770332489013672,-0.3237767028808594,-1.0970686340332032,19.072955750016263,0.0005990094505250454,-3.055151319131255e-05,-0.0003125937655568123,19.072955750016263
2025-10-06 13:45:15.100770,-9.743782036900521,-0.3310176754742861,-1.088694397956133,19.192103750014212,-0.031041113734245302,-0.0021894168108701705,-0.004033409357070923,19.192103750014212,-9.774972839355469,-0.3338058471679688,-1.0928773498535156,19.192103750014212,-0.0006606820970773697,0.0011170906946063042,-0.0019482085481286049,19.192103750014212
2025-10-06 13:45:15.230794,-9.743691405057907,-0.3312498464807868,-1.0894250806421042,19.311250750004547,-0.036370850801467895,0.0008868398889899255,-0.005098772048950195,19.311250750004547,-9.775721282958985,-0.336500244140625,-1.09452392578125,19.311250750004547,0.0004193577915430069,0.0004607263836078346,-0.0004802606999874115,19.311250750004547
2025-10-06 13:45:15.364970,-9.743624162077904,-0.33154067236930135,-1.0899367851018906,19.450256750016706,-0.03598844289779663,0.006416807547211648,-0.006383916959166527,19.450256750016706,-9.777667236328126,-0.32482452392578126,-1.0978170776367189,19.450256750016706,-0.0007744287140667439,-0.0011497007217258215,7.360894232988358e-05,19.450256750016706
2025-10-06 13:45:15.497346,-9.7436259162426,-0.3307667202875018,-1.090155251696706,19.58926175002125,-0.03344198048114777,-0.005583798587322235,-0.00451865516602993,19.58926175002125,-9.77841567993164,-0.33784744262695315,-1.0951226806640626,19.58926175002125,0.00024162698537111282,-0.0001967291464097798,-0.002058782149106264,19.58926175002125
2025-10-06 13:45:15.622152,-9.743639949560166,-0.33100137636065485,-1.089979835227132,19.7084097500192,-0.02983717203140259,0.0015364290028810502,-5.39405643939972e-05,19.7084097500192,-9.774972839355469,-0.3315605163574219,-1.090931396484375,19.7084097500192,-0.0003081853501498699,0.0006255151820369065,-0.0010810564272105694,19.7084097500192
2025-10-06 13:45:15.745004,-9.74356685936451,-0.3310821410268545,-1.0905904307216407,19.837485750002088,-0.025268157720565797,0.0068564085289835935,-0.016058719977736474,19.837485750002088,-9.768536224365235,-0.32332763671875003,-1.1064990234375,19.837485750002088,0.0003319098614156246,-0.00023227297060657293,0.00025802338495850563,19.837485750002088
2025-10-06 13:45:15.875464,-9.743629424571992,-0.33111039038747553,-1.0900280747562647,19.956633750000037,-0.03643283128738403,0.0062859030067920684,-0.0007531213760375977,19.956633750000037,-9.780661010742188,-0.32332763671875003,-1.0898835754394531,19.956633750000037,0.0005654995329678059,-0.0008195685222744942,0.0036189514212310314,19.956633750000037
2025-10-06 13:45:16.002831,-9.743638780117035,-0.33133342511951924,-1.089873415902257,20.095639083330752,-0.025795576572418214,0.0008207298070192337,0.00028885245323181154,20.095639083330752,-9.771080932617188,-0.32826736450195315,-1.0898835754394531,20.095639083330752,0.00029383599758148193,-0.001886331825517118,-0.0003727208822965622,20.095639083330752
2025-10-06 13:45:16.122497,-9.743693743944169,-0.33156238015741113,-1.0893116446584463,20.2147870833287,-0.024842480421066286,0.005241005569696426,-0.0011706125736236574,20.2147870833287,-9.768835601806641,-0.3279679870605469,-1.090781707763672,20.2147870833287,0.0002612350508570671,0.0005077215027995408,-0.0017351559363305569,20.2147870833287
2025-10-06 13:45:16.249984,-9.743713039755821,-0.33145819008350375,-1.0891735041886568,20.33393408334814,-0.024074741005897522,0.006483977437019349,-0.010888684988021851,20.33393408334814,-9.76733871459961,-0.3239263916015625,-1.0973680114746094,20.33393408334814,0.0014456305652856827,0.0028025859501212835,-0.000683346763253212,20.33393408334814
2025-10-06 13:45:16.381474,-9.743648720383645,-0.3319148210808635,-1.0896007163822652,20.472940083331196,-0.0211447012424469,-0.004136320352554321,-0.00567172609269619,20.472940083331196,-9.766739959716798,-0.33560211181640626,-1.0924282836914063,20.472940083331196,-0.0006820219568908215,-0.002746135927736759,-0.0007061264477670193,20.472940083331196
2025-10-06 13:45:16.532811,-9.74361714541912,-0.3319678845629096,-1.0898715155571699,20.621874083357397,-0.02551724910736084,0.01013720814138651,-0.0015085085481405258,20.621874083357397,-9.77018280029297,-0.32168106079101566,-1.0921289062500001,20.621874083357397,-8.537108078598976e-05,-0.0005330224521458149,0.0037577878683805466,20.621874083357397
2025-10-06 13:45:16.664161,-9.743608959317207,-0.33191460181027654,-1.0899606125056744,20.7509510833479,-0.026124190092086795,-0.001741520091891289,0.0005263224989175796,20.7509510833479,-9.769883422851564,-0.3338058471679688,-1.0880873107910156,20.7509510833479,-0.0011188415810465813,-0.0009987971279770136,0.0004996098577976227,20.7509510833479
2025-10-06 13:45:16.795757,-9.743613052368165,-0.33098321344703435,-1.0902070726454258,20.880028083338402,-0.031508890986442564,-0.0014753986895084381,0.0021202734857797625,20.880028083338402,-9.774972839355469,-0.33365615844726565,-1.0870394897460938,20.880028083338402,-0.0008557988330721855,0.00251047033816576,-0.0008361199870705605,20.880028083338402
2025-10-06 13:45:16.924132,-9.743598434329034,-0.3306815702095628,-1.0904223232716324,21.019033083342947,-0.027631017565727237,-0.0019266941025853157,0.0012877030670642854,21.019033083342947,-9.770033111572266,-0.33290771484375004,-1.0906320190429688,21.019033083342947,-0.0013268725015223026,0.0011577109107747674,-0.0033148149959743023,21.019033083342947
2025-10-06 13:45:17.050070,-9.743570367693902,-0.3305747488886118,-1.090704816877842,21.138180833338993,-0.03185036838054657,-0.0011354196444153786,-0.0008254806697368622,21.138180833338993,-9.776619415283204,-0.3309617614746094,-1.0927276611328125,21.138180833338993,-0.0003398992121219635,-0.0007137375068850815,0.00014487933367490768,21.138180833338993
2025-10-06 13:45:17.187897,-9.743516573309899,-0.3310738087445498,-1.0910455633699894,21.277185833343538,-0.027264981865882876,-0.0013848399370908738,0.0019108700752258302,21.277185833343538,-9.771080932617188,-0.3320095825195313,-1.0913804626464845,21.277185833343538,-0.0030724070966243744,-0.0013490857090801,-0.000773369800299406,21.277185833343538
2025-10-06 13:45:17.323109,-9.743535869121551,-0.3311948461085558,-1.0908268044143916,21.40626283333404,-0.030687941908836367,0.0011312535032629966,-0.001600894555449486,21.40626283333404,-9.77407470703125,-0.33260833740234375,-1.0936257934570313,21.40626283333404,-0.003149135736748576,-0.0015843221917748451,-0.0011537950485944748,21.40626283333404
2025-10-06 13:45:17.467787,-9.743445822000504,-0.33148914378136396,-1.0915503973513843,21.545267833338585,-0.020300363302230836,-0.003963279314339161,-0.010458329916000366,21.545267833338585,-9.770332489013672,-0.3299139404296875,-1.088536376953125,21.555196833331138,-0.0002658315934240818,0.0031218838412314653,-0.0023090532049536705,21.545267833338585
2025-10-06 13:45:17.599736,-9.74338851928711,-0.3312612120062113,-1.0921439628303051,21.694202833343297,-0.03038797974586487,0.004191320724785328,0.00809824749827385,21.694202833343297,-9.774374084472656,-0.3276686096191406,-1.0826985168457033,21.694202833343297,-0.00397249823436141,-0.002022983506321907,0.001460463972762227,21.694202833343297
2025-10-06 13:45:17.742934,-9.743404891490936,-0.33068127784878015,-1.0921615044772626,21.833208833355457,-0.02617915391921997,0.00331204567104578,0.009762511253356934,21.833208833355457,-9.771380310058595,-0.3285667419433594,-1.0822494506835938,21.833208833355457,-0.0009325728751718998,0.00013818233856000006,0.0004801047034561634,21.833208833355457
2025-10-06 13:45:17.871758,-9.743407230377198,-0.33087818283587694,-1.0920870255678892,21.962284833338344,-0.02542837142944336,-0.003975485377013683,0.004149184226989747,21.962284833338344,-9.769883422851564,-0.3347039794921875,-1.089584197998047,21.962284833338344,-0.0018279419746249914,0.0004994600312784314,0.0006965021602809429,21.962284833338344
2025-10-06 13:45:18.012533,-9.743465702533722,-0.3300247817113996,-1.0918010967224836,22.101290333346697,-0.020877483487129214,-0.0025834826007485392,-0.0019738007336854934,22.101290333346697,-9.766290893554688,-0.3305126953125,-1.0925779724121094,22.101290333346697,-0.0016319206915795803,-0.0008631071541458368,-1.6290228813886642e-05,22.101290333346697
2025-10-06 13:45:18.139420,-9.743465702533722,-0.32947978466749195,-1.0919831643998623,22.230366333329584,-0.027315852642059327,-0.003128589279949665,0.0037457263469696045,22.230366333329584,-9.7716796875,-0.33320709228515627,-1.0912307739257814,22.230366333329584,0.0003523193299770355,0.0005060211988165975,-6.106588989496231e-05,22.230366333329584
2025-10-06 13:45:18.273933,-9.743459270596505,-0.3295507187023759,-1.0920143739134074,22.35944333334919,-0.032411116361618045,-0.0021594498306512834,-0.0020604857057332994,22.35944333334919,-9.776320037841797,-0.33260833740234375,-1.0948233032226562,22.35944333334919,0.0016799592413008213,0.0018747264984995127,0.0014298532623797655,22.35944333334919
2025-10-06 13:45:18.405894,-9.743486167788506,-0.32938655812293294,-1.0918269706517458,22.498449333332246,-0.021756904721260073,0.003514213152229786,0.005087077617645264,22.498449333332246,-9.76539276123047,-0.32602203369140625,-1.0864407348632814,22.498449333332246,0.00023372145369648933,0.0016875617438927293,0.0014069790486246347,22.498449333332246
2025-10-06 13:45:18.557476,-9.743525928854943,-0.3289529870823026,-1.0915985637903214,22.647383333329344,-0.02635690927505493,-0.004254068657755852,0.0012654105573892593,22.647383333329344,-9.769584045410157,-0.33320709228515627,-1.0891351318359375,22.647383333329344,0.0011915164068341255,8.594215614721179e-05,0.00036230776458978653,22.647383333329344
2025-10-06 13:45:18.687377,-9.743528267741203,-0.32927494939416646,-1.091472483202815,22.77646033334895,-0.028299939036369324,-0.0010880571976304054,-0.01098443314433098,22.77646033334895,-9.771380310058595,-0.3305126953125,-1.1038046264648438,22.77646033334895,0.0019550062716007233,-0.00013951462460681796,0.0005888803862035275,22.77646033334895
2025-10-06 13:45:18.824001,-9.743513064980508,-0.3297243079170585,-1.0914751875400543,22.915465333353495,-0.029662340283393863,0.0013072912395000458,-0.0015517048537731172,22.915465333353495,-9.76973373413086,-0.32781829833984377,-1.0912307739257814,22.915465333353495,-0.0005618021823465824,-0.00032283939071930945,0.0004449766129255295,22.915465333353495
2025-10-06 13:45:18.954186,-9.743488506674767,-0.3296895169839263,-1.0917177008092405,23.044542333343998,-0.030436511635780338,0.0021705960854887965,-0.002207908630371094,23.044542333343998,-9.77302688598633,-0.33006362915039067,-1.0970686340332032,23.044542333343998,0.0011792825534939766,0.0006410538917407393,-0.0009536296129226685,23.044542333343998
2025-10-06 13:45:19.077528,-9.743486752510071,-0.32972047068178656,-1.0917185048013927,23.163690500019584,-0.0281929349899292,0.00025563295930624007,0.00767271637916565,23.163690500019584,-9.771080932617188,-0.3297642517089844,-1.085991668701172,23.163690500019584,0.0009473753161728382,0.0010338362772017717,-0.0014605829492211342,23.163690500019584
2025-10-06 13:45:19.200351,-9.743500785827637,-0.32972792588174343,-1.0915995870530606,23.29276650000247,-0.025485674142837526,0.007298384942114353,-0.000829281359910965,23.29276650000247,-9.768985290527345,-0.32213012695312504,-1.0912307739257814,23.29276650000247,-0.0007864548824727535,-0.0006627194816246629,0.0008772362489253283,23.29276650000247
2025-10-06 13:45:19.340750,-9.74349552333355,-0.3299134287983179,-1.091575467288494,23.43177250001463,-0.029230815768241884,0.010328010097146035,0.0033389063179492954,23.43177250001463,-9.7716796875,-0.319735107421875,-1.0882369995117187,23.43177250001463,0.001827336847782135,-0.0007787835784256458,0.0002551949582993984,23.43177250001463
2025-10-06 13:45:19.476009,-9.743494938611985,-0.33013514790683984,-1.0915088821202517,23.560849500005133,-0.026686692237854005,0.0014187537878751755,-0.007804717272520066,23.560849500005133,-9.768985290527345,-0.32677047729492187,-1.0988648986816407,23.560849500005133,0.00032670050859451294,0.0006882012821733952,4.745041951537132e-05,23.560849500005133
2025-10-06 13:45:19.598594,-9.743487921953202,-0.3301454170793295,-1.0915696200728418,23.689925500017125,-0.024747755527496338,-0.0024628837779164317,-0.004450754374265671,23.689925500017125,-9.767787780761719,-0.33171020507812504,-1.0954220581054688,23.689925500017125,-0.0015214798040688038,0.0014951074263080955,0.0019839212764054537,23.689925500017125
2025-10-06 13:45:19.726127,-9.743467456698419,-0.3299233325198293,-1.0918251433968544,23.819002500007628,-0.026565070152282717,0.00045845825225114827,0.0017916599661111832,23.819002500007628,-9.769134979248047,-0.3297642517089844,-1.0912307739257814,23.819002500007628,-0.0018630239646881819,0.0005754366866312921,-0.0012232759036123753,23.819002500007628
2025-10-06 13:45:19.852166,-9.743425356745721,-0.33020783610641957,-1.092113630399108,23.938150500005577,-0.02960094451904297,0.0001442435011267662,-0.0028592153638601304,23.938150500005577,-9.774972839355469,-0.3303630065917969,-1.093176727294922,23.938150500005577,0.0006147967651486397,0.00310203293338418,0.0035693522077053785,23.938150500005577
2025-10-06 13:45:19.995378,-9.743430619239808,-0.3303645049408078,-1.092020001858473,24.077155333332485,-0.029445993304252627,0.0026959318667650225,-0.0035515256971120836,24.077155333332485,-9.7716796875,-0.32901580810546877,-1.0951226806640626,24.077155333332485,3.2909680157899857e-05,0.0029221780132502317,-0.0002769250422716141,24.077155333332485
2025-10-06 13:45:20.117381,-9.743404891490936,-0.32961533043533564,-1.0924850016832353,24.20623233335209,-0.029172928333282472,0.0022460982576012613,-0.002038339376449585,24.20623233335209,-9.771829376220703,-0.32706985473632816,-1.094673614501953,24.20623233335209,-0.0022777693811804056,0.00042943248990923166,0.0022896595764905214,24.20623233335209
2025-10-06 13:45:20.238371,-9.743407815098763,-0.3297054506465793,-1.0924339847266675,24.32538033335004,-0.021984946131706238,-5.883760750293732e-05,-0.0010419738292694093,24.32538033335004,-9.763297119140626,-0.33021331787109376,-1.0913804626464845,24.32538033335004,0.0017115571536123753,0.00012474687537178397,0.0018834660295397043,24.32538033335004
2025-10-06 13:45:20.393964,-9.743357529044152,-0.32978120863437654,-1.0928482599556446,24.474314333347138,-0.029070017337799074,0.004507655091583729,-0.003921069726347924,24.474314333347138,-9.77302688598633,-0.3261717224121094,-1.0982661437988281,24.474314333347138,-0.0022820590529590845,0.001796453376300633,0.0028113038279116154,24.474314333347138
2025-10-06 13:45:20.516446,-9.743410153985025,-0.32924648076295854,-1.0925472014397384,24.60339133333764,-0.027521089911460878,0.002026937305927277,0.0011671042442321779,24.60339133333764,-9.77123062133789,-0.3285667419433594,-1.0921289062500001,24.60339133333764,-0.002048755530267954,-0.00025752169312909245,0.0005286303348839283,24.60339133333764
2025-10-06 13:45:20.649431,-9.743403722047807,-0.32898408696055415,-1.0926987174153329,24.732468333357247,-0.03276779651641846,-0.002576502487063408,-0.003771600276231766,24.732468333357247,-9.773176574707032,-0.33126113891601566,-1.0949729919433595,24.732468333357247,-0.0017759311012923717,0.0004470754647627473,-0.0013425578363239765,24.732468333357247
2025-10-06 13:45:20.767593,-9.743414831757546,-0.32889403983950616,-1.0926110091805459,24.861544333340134,-0.034551782011985784,-0.0043130524456501005,0.0015296316146850588,24.861544333340134,-9.778265991210938,-0.33215927124023437,-1.08973388671875,24.861544333340134,0.0007549594156444073,-0.0008810946019366384,0.0008686548098921776,24.861544333340134
2025-10-06 13:45:20.890315,-9.74343763589859,-0.32894878439605235,-1.0923974396288396,24.980692333338084,-0.027493607997894288,0.0005317311733961105,0.006555898189544678,24.980692333338084,-9.772428131103515,-0.3276686096191406,-1.084644470214844,24.980692333338084,-0.0030921557918190956,-0.0010280987480655313,0.0016890449915081263,24.980692333338084
2025-10-06 13:45:21.016889,-9.74346862614155,-0.3292588330060244,-1.0920143008232117,25.109769833332393,-0.022971371412277224,-0.007241374589502812,0.0013823548704385757,25.109769833332393,-9.765542449951173,-0.33560211181640626,-1.0898835754394531,25.109769833332393,0.0016279472038149834,-0.0016853995621204376,0.0013080595526844263,25.109769833332393
2025-10-06 13:45:21.141850,-9.74348207473755,-0.329755627065897,-1.0917576080560685,25.228917833330343,-0.0265510368347168,0.0001410640776157379,-0.009353206157684327,25.228917833330343,-9.770332489013672,-0.3291654968261719,-1.1011102294921875,25.228917833330343,0.001662394031882286,0.0030117863789200783,0.000783886993303895,25.228917833330343
2025-10-06 13:45:21.262002,-9.743446991443635,-0.3293220194801688,-1.0921983419358732,25.357993833342334,-0.029579894542694093,-0.0034360066428780556,0.0003683745861053467,25.357993833342334,-9.769584045410157,-0.33440460205078126,-1.0918295288085937,25.357993833342334,0.0005792048759758472,-0.0017573614604771137,-0.0014470824971795082,25.357993833342334
2025-10-06 13:45:21.383821,-9.743433542847633,-0.3289968777447939,-1.092398828342557,25.477141833340283,-0.03273505210876465,0.005369936674833298,0.004012578651309014,25.477141833340283,-9.775721282958985,-0.3255729675292969,-1.0865904235839845,25.477141833340283,-0.0005608750507235527,-0.0019444974604994059,0.00047981925308704376,25.477141833340283
2025-10-06 13:45:21.510148,-9.743483828902246,-0.3288494548201561,-1.0919995366036892,25.596289833338233,-0.025949358344078067,-0.007051997892558575,-0.004171257466077805,25.596289833338233,-9.769284667968751,-0.3347039794921875,-1.0973680114746094,25.596289833338233,-0.002469276078045368,-0.0006725384737364948,-0.0011115032248198986,25.596289833338233
2025-10-06 13:45:21.633017,-9.743488506674767,-0.32934584688395263,-1.0918179805576802,25.725366833328735,-0.032232776284217834,-0.006705331094563008,0.011664025783538819,25.725366833328735,-9.775721282958985,-0.336500244140625,-1.0798544311523437,25.725366833328735,-0.0010405508801341057,-0.0012222779914736748,-0.0004002111963927746,25.725366833328735
2025-10-06 13:45:21.756579,-9.743511310815812,-0.3285950278490782,-1.0918350836634636,25.844513833348174,-0.025323706269264223,-0.0014686013013124467,-0.01526232920587063,25.844513833348174,-9.768536224365235,-0.3288661193847656,-1.107546844482422,25.844513833348174,0.0010674181394279003,0.0018556196009740233,0.0013969356659799814,25.844513833348174
2025-10-06 13:45:21.877194,-9.74351891219616,-0.3282805207371712,-1.0918784992396833,25.963661833346123,-0.03983766496181488,-0.00043598301708698274,-0.0020466716587543487,25.963661833346123,-9.782906341552735,-0.3279679870605469,-1.0919792175292968,25.963661833346123,-0.00011042365804314613,0.0008271554834209383,0.00017823325470089912,25.963661833346123
2025-10-06 13:45:22.032722,-9.743481490015984,-0.3282052378356457,-1.0922250198572874,26.12252595834434,-0.03448512375354767,0.006224799603223801,0.0032393574714660645,26.12252595834434,-9.778715057373047,-0.32362701416015627,-1.086291046142578,26.12252595834434,0.0013935607858002186,7.086386904120445e-05,-0.00013124197721481323,26.12252595834434
2025-10-06 13:45:22.160830,-9.743539377450944,-0.3275807917490602,-1.0919041538983585,26.241672958334675,-0.03577560424804688,-0.004428827315568924,0.008606955260038376,26.241672958334675,-9.77886474609375,-0.33245864868164066,-1.0831475830078126,26.241672958334675,-0.001652645180001855,-0.0019014346180483699,-0.0010039745829999447,26.241672958334675
2025-10-06 13:45:22.287166,-9.74363819539547,-0.3273830462247133,-1.0910750187188387,26.380678958346834,-0.028340869545936585,-0.0020818280428648,-0.005694018602371216,26.380678958346834,-9.77257781982422,-0.3320095825195313,-1.0939251708984377,26.380678958346834,-0.00027957605198025703,-0.0006393420626409352,-0.002644204068928957,26.380678958346834
2025-10-06 13:45:22.411515,-9.743688481450082,-0.3271159015595913,-1.0906967769563198,26.499826958344784,-0.023050893545150757,-0.006240842901170254,-0.007869109734892845,26.499826958344784,-9.76584182739258,-0.3335064697265625,-1.0969189453125001,26.499826958344784,-0.0004238756373524666,-0.0002902281121350825,-0.0006922315806150436,26.499826958344784
2025-10-06 13:45:22.541860,-9.743771511912346,-0.3274149500951171,-1.0898782398551703,26.628903958335286,-0.031052808165550234,-0.010133151635527611,-0.0019519467651844026,26.628903958335286,-9.774374084472656,-0.3362008666992188,-1.088386688232422,26.628903958335286,-0.000562706496566534,-0.0005879831151105464,0.0027014364022761583,26.628903958335286
2025-10-06 13:45:22.673603,-9.743758648037911,-0.32727980632334946,-1.0900295365601778,26.757979958347278,-0.02402913272380829,-0.002484445385634899,-0.010332030057907105,26.757979958347278,-9.7716796875,-0.3311114501953125,-1.1042536926269533,26.757979958347278,-0.001118276733905077,0.002918916754424572,-0.002209023106843233,26.757979958347278
2025-10-06 13:45:22.798555,-9.743674448132515,-0.3272152676805854,-1.0907893822342158,26.88705695833778,-0.03563819468021393,0.0008938930928707123,-0.010918944329023362,26.88705695833778,-9.779014434814453,-0.32602203369140625,-1.1003617858886718,26.88705695833778,-0.0007083313539624214,5.989687633700669e-05,-0.0027576154097914696,26.88705695833778
2025-10-06 13:45:22.922725,-9.743589663505555,-0.3269932927563787,-1.0916200523078443,27.016133958357386,-0.0215037202835083,-0.004267846159636974,-0.013531626462936402,27.016133958357386,-9.765991516113282,-0.3309617614746094,-1.10410400390625,27.016133958357386,-0.0032785788644105196,-0.002063367050141096,-0.0005771666765213013,27.016133958357386
2025-10-06 13:45:23.044374,-9.743582062125206,-0.32775511186569933,-1.0914645894616843,27.135281750001013,-0.039324279427528384,-0.003655679225921631,-0.0017120647430419922,27.135281750001013,-9.781259765625,-0.33141082763671875,-1.0912307739257814,27.135281750001013,0.0002522408030927181,0.00011938586249016225,-0.0005977158434689045,27.135281750001013
2025-10-06 13:45:23.173941,-9.743599603772164,-0.32770742051303386,-1.0913057644665243,27.254429749998963,-0.031970821022987365,-0.006098390109837056,-0.014145437926054001,27.254429749998963,-9.775571594238281,-0.3347039794921875,-1.1048524475097656,27.254429749998963,-0.0005184216424822807,-0.0017304893117398024,0.0001735994592308998,27.254429749998963
2025-10-06 13:45:23.298066,-9.743607205152513,-0.3277595338225365,-1.0912407141923905,27.393434750003507,-0.02073773503303528,0.003084698617458344,-0.005978193283081055,27.393434750003507,-9.763446807861328,-0.3243754577636719,-1.0985655212402343,27.393434750003507,0.00038466090336441994,0.0011193195823580027,-0.001065924298018217,27.393434750003507
2025-10-06 13:45:23.422557,-9.743643457889558,-0.3275484127923846,-1.0909778087586166,27.512582750001457,-0.021150548458099366,0.0019754087179899215,-0.0047432613372802735,27.512582750001457,-9.76539276123047,-0.3263214111328125,-1.0928773498535156,27.512582750001457,-6.736023351550102e-05,0.0003514906857162714,0.0010429862886667252,27.512582750001457
2025-10-06 13:45:23.550450,-9.743655152320862,-0.3274194085970521,-1.0909035491198302,27.641659750021063,-0.02832332789897919,-0.00174605168402195,-0.00451865516602993,27.641659750021063,-9.775571594238281,-0.3311114501953125,-1.093176727294922,27.641659750021063,0.000815155915915966,-0.0004965607658959925,-0.0008457843214273453,27.641659750021063
2025-10-06 13:45:23.680321,-9.74367620229721,-0.3271842408925295,-1.0908078740537168,27.760807750019012,-0.0292021644115448,-0.006771331541240216,0.002420601099729538,27.760807750019012,-9.77302688598633,-0.3333567810058594,-1.0898835754394531,27.760807750019012,-0.0034130532294511795,0.00022935026208870113,0.0002789311110973358,27.760807750019012
2025-10-06 13:45:23.799669,-9.743680880069734,-0.3273211388289929,-1.0906930493563414,27.8898837500019,-0.03054176151752472,0.0023469992727041247,-0.008471226766705513,27.8898837500019,-9.77257781982422,-0.3263214111328125,-1.0975177001953125,27.8898837500019,-0.0013261674903333187,-0.0015960487071424723,0.003505572210997343,27.8898837500019
2025-10-06 13:45:23.950377,-9.743626500964165,-0.32750251214951276,-1.0911482550948859,28.02888975001406,-0.030299686789512635,-1.644529402256012e-05,-0.008016678839921952,28.02888975001406,-9.77257781982422,-0.32677047729492187,-1.0978170776367189,28.02888975001406,-0.00012879818677902222,-0.0010451707057654858,0.002544307615607977,28.02888975001406
2025-10-06 13:45:24.099938,-9.743589663505555,-0.32773347716778517,-1.09138945274055,28.187754208338447,-0.03347764849662781,-0.00592264473438263,-0.004032093733549119,28.187754208338447,-9.778565368652345,-0.33215927124023437,-1.0969189453125001,28.187754208338447,-0.0006158314645290375,-0.0007599290111102164,0.0004797689616680145,28.187754208338447
2025-10-06 13:45:24.228397,-9.743523589968682,-0.3283783154189587,-1.0917872826755048,28.31683120832895,-0.025310842394828798,-0.0049783924967050554,-4.1953772306442265e-05,28.31683120832895,-9.77018280029297,-0.33245864868164066,-1.0903326416015626,28.31683120832895,-0.0009387917816638947,-0.0027505310717970133,-0.002137242816388607,28.31683120832895
2025-10-06 13:45:24.366452,-9.74359141767025,-0.32813028384000065,-1.0912642492353917,28.45583720834111,-0.02913609087467194,-0.0013345904275774956,0.001680489778518677,28.45583720834111,-9.77302688598633,-0.3299139404296875,-1.0901829528808595,28.45583720834111,-0.0024010168854147196,-0.0019306681351736188,0.0012146157678216696,28.45583720834111
2025-10-06 13:45:24.497269,-9.743590832948685,-0.3279250465705991,-1.0913359507173301,28.5849132083531,-0.03228013873100281,0.0014539101719856264,-0.0030382132530212404,28.5849132083531,-9.776170349121093,-0.32721954345703125,-1.0928773498535156,28.5849132083531,-0.0021705306135118008,0.000251886376645416,0.0008196586277335882,28.5849132083531
2025-10-06 13:45:24.630957,-9.743611882925034,-0.3277967367321253,-1.091182461306453,28.723919208336156,-0.028217493295669558,-0.006607865318655968,-0.0013951456546783447,28.723919208336156,-9.773176574707032,-0.3338058471679688,-1.0940748596191407,28.723919208336156,-0.0013751424849033356,0.0025647245347499847,0.0010483597870916128,28.723919208336156
2025-10-06 13:45:24.768946,-9.743539377450944,-0.32806114051491025,-1.0917500797659159,28.852996208355762,-0.028888753652572634,-0.0055950179323554046,-0.0015764093399047853,28.852996208355762,-9.775870971679687,-0.3347039794921875,-1.0942245483398438,28.852996208355762,0.0021235099993646145,0.002024084562435746,0.00013273535296320915,28.852996208355762
2025-10-06 13:45:24.902953,-9.743444067835808,-0.32802700739353896,-1.0926229228824378,28.992002208338818,-0.028835543990135194,-0.0021863470226526262,-0.0036979253590106965,28.992002208338818,-9.76973373413086,-0.32811767578125,-1.0960208129882814,28.992002208338818,-0.0009115133434534073,-2.6869005523622036e-05,6.674043834209442e-05,28.992002208338818
2025-10-06 13:45:25.048673,-9.743406060934067,-0.32805686473846435,-1.0929385263472795,29.140935750008794,-0.023632691502571107,-0.0067967669293284416,0.004102479591965675,29.140935750008794,-9.768386535644531,-0.3345542907714844,-1.0882369995117187,29.140935750008794,0.0002778475172817707,0.0011311180423945189,0.002176510402932763,29.140935750008794
2025-10-06 13:45:25.168827,-9.743357529044152,-0.328161858804524,-1.0933373064547778,29.260083750006743,-0.029369394779205325,0.0015411067754030228,0.0031540612131357192,29.260083750006743,-9.77257781982422,-0.32407608032226565,-1.0900332641601562,29.260083750006743,0.001323002390563488,0.0020855828188359737,0.0004609429743140936,29.260083750006743
2025-10-06 13:45:25.292597,-9.74343763589859,-0.328090705499053,-1.0926612221449614,29.379231750004692,-0.030189174413681033,-0.004817045889794827,0.00023257300257682802,29.379231750004692,-9.775272216796875,-0.33245864868164066,-1.090931396484375,29.379231750004692,-0.001552004599943757,-0.00024829761241562665,-0.0003433832898736,29.379231750004692
2025-10-06 13:45:25.435077,-9.743386765122414,-0.32838485699146985,-1.0929998490214348,29.528166750009404,-0.022603581547737124,-0.001229669451713562,0.007607373744249344,29.528166750009404,-9.76539276123047,-0.3299139404296875,-1.0864407348632814,29.528166750009404,0.001485724002122879,0.0015453966334462166,-0.001703163143247366,29.528166750009404
2025-10-06 13:45:25.563189,-9.743453423380853,-0.3277624208852649,-1.0926085972040893,29.647314750007354,-0.020741828083992005,0.0018900393694639207,0.0010782265663146972,29.647314750007354,-9.765991516113282,-0.3243754577636719,-1.0915301513671876,29.647314750007354,-0.00024313293397426605,0.0006661952356807888,0.001668740063905716,29.647314750007354
2025-10-06 13:45:25.690286,-9.743438805341722,-0.32781563054770235,-1.0927253222465516,29.776391749997856,-0.024798041582107546,-0.007337415106594563,0.006583964824676514,29.776391749997856,-9.767638092041016,-0.3357518005371094,-1.0867401123046876,29.776391749997856,-0.00046746712177991867,-0.0005473099299706519,-0.0012480765581130981,29.776391749997856
2025-10-06 13:45:25.809362,-9.743425941467285,-0.32761481523513797,-1.092882393077016,29.895538750017295,-0.030497907400131228,-0.0036462871357798576,-0.009874631613492967,29.895538750017295,-9.77302688598633,-0.33126113891601566,-1.1026071166992188,29.895538750017295,-0.00255935313180089,0.0005370357539504766,0.002661878475919366,29.895538750017295
2025-10-06 13:45:25.933565,-9.74348324418068,-0.32673601526767015,-1.0926527436822653,30.024615750007797,-0.029843019247055055,-0.0019804153963923457,0.0023201751708984376,30.024615750007797,-9.775571594238281,-0.32721954345703125,-1.0906320190429688,30.024615750007797,0.0016141943633556366,0.001145626767538488,0.0026087129954248667,30.024615750007797
2025-10-06 13:45:26.053420,-9.743499616384506,-0.3270019904896617,-1.0924151274561882,30.143763500003843,-0.03147263824939728,-0.0027622246742248537,-0.003755008801817894,30.143763500003843,-9.774972839355469,-0.33171020507812504,-1.0970686340332032,30.143763500003843,0.00013182498514652252,-0.00023578030231874436,0.002433385932818055,30.143763500003843
2025-10-06 13:45:26.180380,-9.743506048321725,-0.3271679783239961,-1.0923121433705092,30.27284050002345,-0.03251461207866669,-0.003644094429910183,-0.006103323698043823,30.27284050002345,-9.777517547607422,-0.32946487426757814,-1.0982661437988281,30.27284050002345,0.0003384179435670376,-0.0018374092178419232,-0.00029932940378785133,30.27284050002345
2025-10-06 13:45:26.306552,-9.743450499773026,-0.3275681471452117,-1.0926862189918758,30.40191750001395,-0.028078914284706116,-0.007285484522581101,0.0069945124536752706,30.40191750001395,-9.77302688598633,-0.33260833740234375,-1.085991668701172,30.40191750001395,-0.000943734310567379,-0.000609826878644526,-0.000341891311109066,30.40191750001395
2025-10-06 13:45:26.438209,-9.743438220620156,-0.32761021055281164,-1.0927761199325323,30.5210655000119,-0.03078442096710205,0.006078875027596951,-0.002346853092312813,30.5210655000119,-9.77452377319336,-0.31943572998046876,-1.0955717468261719,30.5210655000119,0.001497066579759121,-0.0013986330013722181,-0.00020328816026449203,30.5210655000119
2025-10-06 13:45:26.575701,-9.743371562361718,-0.32798940248787406,-1.0932743027061225,30.669999500009,-0.0356428724527359,-0.00012827329337596893,-0.004692975282669067,30.669999500009,-9.77931381225586,-0.326920166015625,-1.096769256591797,30.669999500009,-0.000458630733191967,1.2815231457352638e-05,0.0003610961139202118,30.669999500009
2025-10-06 13:45:26.720930,-9.743337063789369,-0.32762669239193204,-1.0936864583194257,30.809005500021158,-0.027444491386413576,-0.00019160594791173936,0.005150227546691895,30.809005500021158,-9.76973373413086,-0.3296145629882813,-1.0876382446289063,30.809005500021158,0.0002905013971030712,-0.00041138989035971463,-0.0009808242321014404,30.809005500021158
2025-10-06 13:45:26.844808,-9.743348758220673,-0.32748935591429473,-1.093614172115922,30.93808250001166,-0.0175521719455719,0.007005877979099751,-0.002256879061460495,30.93808250001166,-9.761051788330079,-0.3207829284667969,-1.093326416015625,30.93808250001166,0.003646078985184431,0.0006387002649717033,0.0007441614288836718,30.93808250001166
2025-10-06 13:45:26.967754,-9.743299641609193,-0.3278436240926385,-1.0939548455178738,31.05723050000961,-0.024637827873229982,0.003617855049669743,0.004968963861465454,31.05723050000961,-9.7668896484375,-0.32602203369140625,-1.0900332641601562,31.05723050000961,0.0012410269118845463,-0.00041574155329726636,0.00043675629422068596,31.05723050000961
2025-10-06 13:45:27.110277,-9.743287362456321,-0.32792511966079474,-1.094034440740943,31.196236708346987,-0.03886995077133179,-0.011269484907388688,-0.003633386716246605,31.196236708346987,-9.782307586669923,-0.33724868774414063,-1.0976673889160158,31.196236708346987,-0.0009459243156015873,-0.0005273420829325914,-0.000849518459290266,31.196236708346987
2025-10-06 13:45:27.267048,-9.743270990252496,-0.32836848478764297,-1.0940683545917274,31.355100708344253,-0.030954574942588808,-0.006784597411751747,0.0037350551784038548,31.355100708344253,-9.774972839355469,-0.33545242309570317,-1.0925779724121094,31.355100708344253,-9.845895692706108e-05,-0.00035809900145977736,-0.00026908423751592636,31.355100708344253
2025-10-06 13:45:27.403574,-9.743231813907624,-0.3289271131530404,-1.0942317842692137,31.494106708356412,-0.027400052547454836,0.0011088148131966592,-0.005830843448638916,31.494106708356412,-9.770482177734376,-0.3276686096191406,-1.1005114746093752,31.494106708356412,-0.001946719130501151,0.001784808118827641,-0.00036948639899492264,31.494106708356412
2025-10-06 13:45:27.562908,-9.743301395773889,-0.3287026897072792,-1.09368470415473,31.652969708346063,-0.029725490212440493,0.0013334575295448304,-0.0009893488883972168,31.652969708346063,-9.77302688598633,-0.32587234497070316,-1.093176727294922,31.652969708346063,-0.0021970930974930525,-0.0029182506259530783,0.0013066786341369152,31.652969708346063
2025-10-06 13:45:27.685727,-9.743293209671975,-0.32905651934444907,-1.0936547371745111,31.772117708344012,-0.03138142168521881,-0.0023543448373675347,-0.0005696649849414825,31.772117708344012,-9.774673461914062,-0.3315605163574219,-1.0970686340332032,31.772117708344012,0.00114733399823308,-0.0004669776535592973,-0.0010443567298352718,31.772117708344012
2025-10-06 13:45:27.827670,-9.743375655412674,-0.3291183901950717,-1.0928891173750164,31.911123708356172,-0.02052021861076355,-0.003040881045162678,0.0004607605934143067,31.911123708356172,-9.764943695068359,-0.3297642517089844,-1.0949729919433595,31.911123708356172,0.00039939675480127335,0.0006353019271045923,0.0010711087379604578,31.911123708356172
2025-10-06 13:45:27.955347,-9.74338968873024,-0.3294268673658371,-1.092691042944789,32.040200708346674,-0.02829233765602112,0.0016084959357976914,-0.006473160088062287,32.040200708346674,-9.77302688598633,-0.3303630065917969,-1.0996133422851564,32.040200708346674,-0.0017126277089118958,-0.0017304394859820604,-0.0008059972897171974,32.040200708346674
2025-10-06 13:45:28.086928,-9.743382672071457,-0.32977770030498504,-1.0926185374706985,32.169278208340984,-0.0300921106338501,-0.002680911831557751,0.0033342285454273225,32.169278208340984,-9.77302688598633,-0.33245864868164066,-1.0912307739257814,32.169278208340984,-7.61551782488823e-05,-0.0004054385353811085,0.0005444150883704424,32.169278208340984
2025-10-06 13:45:28.228429,-9.743391442894936,-0.32970658354461196,-1.0925683975964786,32.318213208345696,-0.0306820946931839,-0.006045180447399616,-0.0012067191302776337,32.318213208345696,-9.77407470703125,-0.3347039794921875,-1.0952723693847657,32.318213208345696,0.0018605818040668964,-0.00024444906739518046,0.0016471142880618572,32.318213208345696
2025-10-06 13:45:28.365596,-9.74340079843998,-0.32975464034825563,-1.09245934702456,32.45721920832875,-0.026031804084777833,-0.0015064620226621628,0.002726191207766533,32.45721920832875,-9.768236846923829,-0.33006362915039067,-1.0903326416015626,32.45721920832875,0.0014647659845650196,-3.0326307751238346e-05,-0.0020515378564596176,32.45721920832875
2025-10-06 13:45:28.514629,-9.743395535945893,-0.3289682994782925,-1.0927620135247709,32.606154208333464,-0.03172699213027954,-0.0009456409513950349,0.0006326687335968018,32.606154208333464,-9.774673461914062,-0.33006362915039067,-1.09452392578125,32.606154208333464,0.0006026830524206161,-0.0010683902073651552,-0.0012789247557520866,32.606154208333464
2025-10-06 13:45:28.649794,-9.743311336040497,-0.3293506342917681,-1.0933963633328676,32.735230208345456,-0.0291167950630188,0.0006342036277055741,-0.00681551456451416,32.735230208345456,-9.77123062133789,-0.329315185546875,-1.09931396484375,32.735230208345456,0.0004915776662528515,0.0011871391907334328,0.0005366220138967037,32.735230208345456
2025-10-06 13:45:28.785473,-9.743326538801194,-0.3293697108328343,-1.0932516447454692,32.874236208357615,-0.028053771257400516,0.001401723772287369,0.007259902954101563,32.874236208357615,-9.771979064941407,-0.3288661193847656,-1.0876382446289063,32.874236208357615,-0.000138960313051939,0.001845451188273728,-0.002087978646159172,32.874236208357615
2025-10-06 13:45:28.912745,-9.743355774879456,-0.329343654178083,-1.0930054769665003,32.993384208355565,-0.03161706447601319,-0.0059590436518192295,0.0037211680412292483,32.993384208355565,-9.774374084472656,-0.33260833740234375,-1.0894345092773439,32.993384208355565,-0.001051921397447586,0.0006930871750228107,0.0009015172254294157,32.993384208355565
2025-10-06 13:45:29.041423,-9.743333555459976,-0.32952846273779873,-1.0931492453813554,33.13238995833672,-0.03553119063377381,-8.613679558038712e-05,-0.0007753407955169679,33.13238995833672,-9.779912567138672,-0.3285667419433594,-1.093326416015625,33.13238995833672,-8.975155651569366e-06,0.00023190508363768458,-0.001780067104846239,33.13238995833672
2025-10-06 13:45:29.188637,-9.743342911005021,-0.32942800026386976,-1.0930905539542437,33.271395958348876,-0.02773802161216736,-0.002581582255661488,0.006050698757171631,33.271395958348876,-9.768536224365235,-0.3309617614746094,-1.086141357421875,33.271395958348876,-0.00011495547369122505,0.0013654332142323256,0.0038987749721854925,33.271395958348876
2025-10-06 13:45:29.329217,-9.743401967883111,-0.3293706975504756,-1.0925894475728275,33.41040195833193,-0.0267820018529892,0.0011032965034246446,0.00061030313372612,33.41040195833193,-9.77018280029297,-0.3276686096191406,-1.0903326416015626,33.41040195833193,-0.00037569552659988403,-0.0008815675973892212,-0.0004114271141588688,33.41040195833193
2025-10-06 13:45:29.448225,-9.743394366502763,-0.32929435484111313,-1.0926798601448537,33.53947895835154,-0.02888407588005066,-0.0036133600026369097,-4.794716835021973e-05,33.53947895835154,-9.771380310058595,-0.33215927124023437,-1.0922785949707032,33.53947895835154,-0.0011256192810833454,0.0002839714288711548,0.0013038243632763624,33.53947895835154
2025-10-06 13:45:29.590807,-9.7434475761652,-0.3294670669734478,-1.0921524412930013,33.67848495833459,-0.0352674812078476,-0.010176603756844997,-0.005215716361999512,33.67848495833459,-9.77841567993164,-0.3393443298339844,-1.0958711242675783,33.67848495833459,0.0008355770260095596,-0.0005874545895494521,0.0012245301622897387,33.67848495833459
2025-10-06 13:45:29.733084,-9.743442898392678,-0.32952272515743974,-1.092162235379219,33.81749095834675,-0.0294331294298172,0.007392634749412537,-0.008947263211011887,33.81749095834675,-9.773925018310548,-0.32332763671875003,-1.099463653564453,33.81749095834675,0.001669116783887148,0.0013470427365973592,0.0003701578825712204,33.81749095834675
2025-10-06 13:45:29.865891,-9.743503124713898,-0.32958836015313864,-1.0916163977980615,33.95649695832981,-0.024584033489227296,0.0008719660341739655,0.0030803132057189942,33.95649695832981,-9.7668896484375,-0.33006362915039067,-1.0855426025390627,33.95649695832981,0.00043384451419115067,-0.0008718700846657157,0.0014144438318908215,33.95649695832981
2025-10-06 13:45:29.989369,-9.74356335103512,-0.32936028219759467,-1.0911442351341247,34.08557337502134,-0.030510771274566653,-0.0032480186596512794,0.0027576199918985366,34.08557337502134,-9.772877197265625,-0.33320709228515627,-1.0891351318359375,34.08557337502134,-0.0001647123135626316,-0.000625275366473943,-0.0007650903426110744,34.08557337502134
2025-10-06 13:45:30.121971,-9.743558673262596,-0.3295159277692437,-1.0911353181302548,34.204720375011675,-0.028120429515838624,0.005290195271372795,0.004245151653885841,34.204720375011675,-9.772128753662109,-0.3231779479980469,-1.0874885559082033,34.204720375011675,0.0006349533796310425,-0.002078923862427473,-0.0006209616549313068,34.204720375011675
2025-10-06 13:45:30.251559,-9.743586155176164,-0.32934979375451806,-1.0909552238881588,34.343726375023834,-0.032884740829467775,-0.004306364692747593,-0.0029705317318439485,34.343726375023834,-9.775870971679687,-0.33605117797851564,-1.0937754821777343,34.343726375023834,0.0008487449958920479,0.0015388859901577234,0.00351452617906034,34.343726375023834
2025-10-06 13:45:30.367399,-9.743621238470078,-0.3288273450359702,-1.0907949370890857,34.462874375021784,-0.023268409967422486,-0.004230058528482914,-0.01540507435798645,34.462874375021784,-9.76584182739258,-0.3350033569335938,-1.1047027587890625,34.462874375021784,2.8036069124937057e-05,-0.00015447993064299226,-0.0014000460505485535,34.462874375021784
2025-10-06 13:45:30.515743,-9.743649889826775,-0.32918376937508587,-1.0904305093735458,34.591951375012286,-0.03671174347400665,-0.007466163486242294,-0.00993091106414795,34.591951375012286,-9.778116302490234,-0.33635055541992187,-1.1006611633300782,34.591951375012286,0.0018663243390619755,0.0012879283167421818,-5.426304414868355e-05,34.591951375012286
2025-10-06 13:45:30.655780,-9.74363585650921,-0.32931273702532055,-1.0905234070122243,34.73095737499534,-0.024751848578453067,0.004937242716550827,0.004830823391675949,34.73095737499534,-9.767189025878906,-0.3246748352050781,-1.0873388671875,34.73095737499534,0.001421158667653799,0.0028154184110462666,-0.0005154204554855824,34.73095737499534
2025-10-06 13:45:30.790031,-9.743631763458252,-0.3296161344274879,-1.0904528749734164,34.879892375000054,-0.029544226527214053,0.0017978726327419281,-0.005867023095488548,34.879892375000054,-9.771529998779297,-0.32811767578125,-1.0969189453125001,34.879892375000054,0.00038823671638965607,0.0029930316377431154,0.00026578083634376526,34.879892375000054
2025-10-06 13:45:30.935380,-9.743623577356338,-0.32995717328041796,-1.0904366489499808,35.01889837501221,-0.031051054000854495,-0.0023518232256174087,-0.004536416083574296,35.01889837501221,-9.776469726562501,-0.33290771484375004,-1.0958711242675783,35.01889837501221,-0.002029937459155917,-0.00208490202203393,-0.0005268240347504616,35.01889837501221
2025-10-06 13:45:31.064517,-9.743690235614777,-0.3302479260787368,-1.0897406110167505,35.13804637501016,-0.03098322629928589,0.00018433347344398498,-0.001489870548248291,35.13804637501016,-9.775571594238281,-0.3309617614746094,-1.0924282836914063,35.13804637501016,0.0014339243061840534,-0.0023621879518032074,-0.0006286771968007088,35.13804637501016
2025-10-06 13:45:31.216995,-9.743633517622948,-0.33025859724730255,-1.090238866880536,35.29691037500743,-0.025800254344940186,0.0012427891418337824,-0.0033866342157125476,35.29691037500743,-9.77123062133789,-0.3299139404296875,-1.0936257934570313,35.29691037500743,0.002757301088422537,-0.0016548698768019676,0.0013826282229274511,35.29691037500743
2025-10-06 13:45:31.365626,-9.743586739897728,-0.33060087863355875,-1.0905616331845522,35.455774375004694,-0.02435072958469391,-0.002157110944390297,-0.0005192327499389649,35.455774375004694,-9.768087158203125,-0.335302734375,-1.0916798400878907,35.455774375004694,0.0007604267448186874,0.00026660290313884616,-0.000215933658182621,35.455774375004694
2025-10-06 13:45:31.498506,-9.743603112101555,-0.3305066653713584,-1.0904472470283508,35.5848513750243,-0.03047159492969513,0.0007424136623740197,-0.005423877239227295,35.5848513750243,-9.774823150634766,-0.3297642517089844,-1.0937754821777343,35.5848513750243,0.0010594981722533703,0.0003233287716284394,0.001619183225557208,35.5848513750243
2025-10-06 13:45:31.649664,-9.743631178736686,-0.3306412975117564,-1.0901487466692925,35.73378637499991,-0.02071376144886017,-0.004511711597442627,-0.003327065706253052,35.73378637499991,-9.76449462890625,-0.3333567810058594,-1.0928773498535156,35.73378637499991,-0.00043046288192272186,0.001753881573677063,-0.001464255154132843,35.73378637499991
2025-10-06 13:45:31.783170,-9.743645212054252,-0.33071058701723816,-1.0900070978701115,35.862863375019515,-0.030878561139106753,0.0003475804254412651,-0.00481576681137085,35.862863375019515,-9.772278442382813,-0.33290771484375004,-1.0964698791503906,35.862863375019515,0.00021472154185175896,0.000547432282473892,-0.002402893267571926,35.862863375019515
2025-10-06 13:45:31.918627,-9.743701345324517,-0.3305031570419669,-1.0895765966176987,36.00186937500257,-0.029326710104942325,-0.003003349229693413,-0.008689108639955522,36.00186937500257,-9.77123062133789,-0.3320095825195313,-1.09931396484375,36.00186937500257,-0.0006208894774317741,-0.0030555827543139458,0.001430955482646823,36.00186937500257
2025-10-06 13:45:32.048840,-9.74366158425808,-0.33044304035604,-1.0899372967332601,36.13094695835025,-0.020832459926605224,0.005917930416762829,0.003945774212479591,36.13094695835025,-9.77841567993164,-0.3411405944824219,-1.0877879333496094,36.13094695835025,-0.0009832601062953472,0.00029951182659715414,0.0011027960572391748,36.140875958342804
2025-10-06 13:45:32.175828,-9.743697836995125,-0.33025128822773697,-1.0896871089935303,36.26002395834075,-0.024540179371833802,-0.003105529323220253,-0.005286029130220414,36.26002395834075,-9.769284667968751,-0.3335064697265625,-1.0948233032226562,36.26002395834075,0.00041532283648848534,0.0005584688624367118,-0.00025412626564502716,36.26002395834075
2025-10-06 13:45:32.300614,-9.743726488351822,-0.3302305306121707,-1.089437871426344,36.389100958331255,-0.03469036102294922,0.006154413744807244,-0.010025782138109207,36.389100958331255,-9.777667236328126,-0.32602203369140625,-1.0988648986816407,36.389100958331255,-0.0013235092628747225,0.00113907759077847,0.001618298003450036,36.389100958331255
2025-10-06 13:45:32.426118,-9.743754554986955,-0.3303831429407001,-1.089126945734024,36.51817795835086,-0.02747606635093689,-0.00042896635830402374,0.003284965753555298,36.51817795835086,-9.77257781982422,-0.33066238403320314,-1.0853929138183593,36.51817795835086,-0.002552072051912546,-0.002128023188561201,0.0009415496606379747,36.51817795835086
2025-10-06 13:45:32.542015,-9.74377092719078,-0.33074713211506607,-1.0888630901277065,36.63732595834881,-0.027309420704841617,0.0012822578474879266,0.0007754138857126237,36.63732595834881,-9.77123062133789,-0.3320095825195313,-1.0873388671875,36.63732595834881,0.0004588342271745205,0.0006912602111697197,0.00038765836507081985,36.63732595834881
2025-10-06 13:45:32.668245,-9.74377092719078,-0.33094045568257574,-1.0888049834221603,36.75647395834676,-0.033596346974372866,0.0016253066807985306,-0.004820371493697167,36.75647395834676,-9.776469726562501,-0.329315185546875,-1.0934761047363282,36.75647395834676,0.0011799652129411697,-0.0005352625157684088,-0.00033414969220757484,36.75647395834676
2025-10-06 13:45:32.788875,-9.743772681355477,-0.33124388962984086,-1.0886902318149805,36.88555095833726,-0.038084669709205626,0.002228118069469929,-0.004336148947477341,36.88555095833726,-9.783954162597658,-0.32706985473632816,-1.0922785949707032,36.88555095833726,0.0011831200681626797,-0.0004680297861341387,0.00018763961270451546,36.88555095833726
2025-10-06 13:45:32.911413,-9.743764495253563,-0.3305633468180895,-1.0889722868800165,37.00469895833521,-0.02551900327205658,-0.00039837811142206197,-0.013484702557325364,37.00469895833521,-9.769584045410157,-0.3308120727539063,-1.1011102294921875,37.00469895833521,-0.0010514496825635433,-0.000325291242916137,-0.0007120608352124691,37.00469895833521
2025-10-06 13:45:33.040778,-9.743773266077042,-0.3306923144683242,-1.0888581930845977,37.12384695833316,-0.033444319367408756,0.0024250230565667154,-0.003270859345793724,37.12384695833316,-9.77886474609375,-0.32841705322265624,-1.0936257934570313,37.12384695833316,-0.0020039360970258713,-0.000997368711978197,0.0010417760349810123,37.12384695833316
2025-10-06 13:45:33.170742,-9.743817704916001,-0.3303152421489358,-1.0885781845450402,37.26285295834532,-0.022173226475715638,0.004293245002627373,-0.013878877982497217,37.26285295834532,-9.76584182739258,-0.3242257690429688,-1.1021580505371094,37.26285295834532,-3.973348066210747e-05,-0.0007547065615653992,-0.0005289856344461441,37.26285295834532
2025-10-06 13:45:33.300093,-9.743817704916001,-0.3305043995752931,-1.0885224898159505,37.38200095834327,-0.023970075845718385,-0.002253626547753811,-0.004654383659362793,37.38200095834327,-9.766141204833986,-0.33006362915039067,-1.0952723693847657,37.38200095834327,0.0017993352375924587,-0.0018176392186433077,0.0005316564347594976,37.38200095834327
2025-10-06 13:45:33.419042,-9.74380425632,-0.33081876050680875,-1.0885491677373649,37.51107795833377,-0.024432590603828432,-0.00014303751289844514,0.00674885630607605,37.51107795833377,-9.768236846923829,-0.3309617614746094,-1.082548828125,37.51107795833377,-0.0024884818121790886,-0.000294788449537009,-0.001385172363370657,37.51107795833377
2025-10-06 13:45:33.536738,-9.743800747990608,-0.33124674014747146,-1.088464602380991,37.63022595833172,-0.023539136052131655,0.006122802235186101,-0.00620871976017952,37.63022595833172,-9.767189025878906,-0.32721954345703125,-1.0958711242675783,37.63022595833172,-5.778064951300621e-05,0.00017215003026649356,-0.0003460072912275791,37.63022595833172
2025-10-06 13:45:33.665455,-9.743773850798608,-0.3314337779581547,-1.0886320520192385,37.75930295835133,-0.025959883332252503,0.009453339725732804,-0.010681693553924562,37.75930295835133,-9.76973373413086,-0.3242257690429688,-1.1012599182128906,37.75930295835133,-0.0016277264803647995,0.0008260432514362037,-0.0026095411740243435,37.75930295835133
2025-10-06 13:45:33.796590,-9.743695498108865,-0.3315463003143668,-1.0892916179448366,37.88837995834183,-0.028132708668708803,-0.00016390476375818255,-0.01406357690691948,37.88837995834183,-9.773475952148438,-0.3311114501953125,-1.1044033813476564,37.88837995834183,-0.0016596366185694933,-0.00017623414169065654,0.0006792016793042421,37.88837995834183
2025-10-06 13:45:33.928476,-9.743710116147996,-0.3315104861184955,-1.08918220192194,38.01745695833233,-0.02841863751411438,0.0026443667337298395,-0.0035457515716552737,38.01745695833233,-9.7716796875,-0.32811767578125,-1.093027038574219,38.01745695833233,0.0005913395434617996,0.0009478773572482169,-0.0013427245430648327,38.01745695833233
2025-10-06 13:45:34.066587,-9.743610128760338,-0.3317090721800924,-1.0900125796347857,38.15646237501642,-0.028368351459503175,0.0028429893404245377,-0.0060085257142782214,38.15646237501642,-9.771080932617188,-0.32677047729492187,-1.0963201904296875,38.15646237501642,4.770653322339058e-05,0.001332747982814908,-2.2895634174346924e-05,38.15646237501642
2025-10-06 13:45:34.191822,-9.743540546894074,-0.33126026183366775,-1.0907781263440848,38.27561037501437,-0.023947856426239016,-0.0003002545237541199,-0.0012010180950164796,38.27561037501437,-9.767039337158204,-0.33185989379882813,-1.0937754821777343,38.27561037501437,0.0017257961444556713,-0.0018201266648247838,-8.574593812227249e-05,38.27561037501437
2025-10-06 13:45:34.322303,-9.743506633043289,-0.33213328767567873,-1.0908053158968687,38.41461637499742,-0.027124648690223695,0.000872185304760933,-0.002521246299147606,38.41461637499742,-9.768985290527345,-0.3299139404296875,-1.0915301513671876,38.41461637499742,0.0019363127648830414,0.0016569533618167043,0.0004588987212628126,38.41461637499742
2025-10-06 13:45:34.447120,-9.743456346988678,-0.3320012867823243,-1.091304741203785,38.53376437499537,-0.03151649236679077,-0.001654871664941311,-0.002620722055435181,38.53376437499537,-9.774823150634766,-0.335302734375,-1.0934761047363282,38.53376437499537,-0.0030230667907744646,-0.0007416760781779885,-0.0009069470688700676,38.53376437499537
2025-10-06 13:45:34.571409,-9.74350546360016,-0.3318283919245005,-1.0909216023981572,38.66284137501498,-0.0371567165851593,-0.0004805680364370346,-0.001207011491060257,38.66284137501498,-9.77841567993164,-0.3342549133300781,-1.0919792175292968,38.66284137501498,0.0002508861944079399,-0.0018995495047420263,0.00041056470945477486,38.66284137501498
2025-10-06 13:45:34.715961,-9.743497277498246,-0.33167895901948213,-1.0910332842171193,38.80184737499803,-0.029230231046676637,-0.0034740866348147393,-0.006185184717178345,38.80184737499803,-9.772278442382813,-0.3347039794921875,-1.0961705017089844,38.80184737499803,-0.0013748377095907927,-0.0008194249239750206,-6.0974154621362686e-05,38.80184737499803
2025-10-06 13:45:34.839949,-9.74352768301964,-0.3313268104568124,-1.0908822798728943,38.93092437501764,-0.03518854379653931,0.002909684143960476,-0.006336189061403275,38.93092437501764,-9.780062255859375,-0.326920166015625,-1.0976673889160158,38.93092437501764,1.0881572961807251e-05,-0.000488580553792417,0.00016289949417114258,38.93092437501764
2025-10-06 13:45:34.963434,-9.743552241325379,-0.33101201098412275,-1.090731348618865,39.05007237501559,-0.02782689929008484,-9.940266609191895e-05,-0.006037688702344894,39.05007237501559,-9.77123062133789,-0.33245864868164066,-1.0960208129882814,39.05007237501559,-0.001461725914850831,-8.492398774251342e-05,0.0011777423787862062,39.05007237501559
2025-10-06 13:45:35.100846,-9.743611882925034,-0.33150653924793005,-1.0900722943246366,39.189078499999596,-0.02642239809036255,-0.0018502417579293253,-0.010290076285600663,39.189078499999596,-9.770482177734376,-0.33365615844726565,-1.0988648986816407,39.189078499999596,-0.0022429346572607756,-0.0004062108928337693,0.0005903148557990789,39.189078499999596
2025-10-06 13:45:35.252112,-9.743667431473732,-0.3317648399993777,-1.08948925383389,39.33801350000431,-0.021276263594627382,-0.006082602627575398,-0.0014419233798980715,39.33801350000431,-9.76539276123047,-0.3393443298339844,-1.0901829528808595,39.33801350000431,0.0010724510066211224,3.862316953018308e-05,-0.001053673680871725,39.33801350000431
2025-10-06 13:45:35.369824,-9.743663923144341,-0.33182163108140234,-1.0895013137161733,39.45716150000226,-0.02756669819355011,0.008643683083355428,-0.004873069524765015,39.45716150000226,-9.773475952148438,-0.32227981567382813,-1.0948233032226562,39.45716150000226,-0.0016372054815292358,-0.00020105927251279354,0.0023657819256186485,39.45716150000226
2025-10-06 13:45:35.520831,-9.743714209198952,-0.33234813630580906,-1.0888741267472506,39.606097500014585,-0.028412790298461915,0.004529911056160927,0.004828849956393242,39.606097500014585,-9.774224395751954,-0.32721954345703125,-1.0841954040527344,39.606097500014585,-0.0012294102925807238,0.00025524303782731295,-0.0005213320255279541,39.606097500014585
2025-10-06 13:45:35.667415,-9.743771511912346,-0.33239071134477854,-1.0883703891187906,39.7550325000193,-0.03374720513820648,-0.002163615971803665,-0.015584145337343216,39.7550325000193,-9.777517547607422,-0.3357518005371094,-1.101708984375,39.7550325000193,0.0015219692140817642,0.0006813519867137074,0.0003740875981748104,39.7550325000193
2025-10-06 13:45:35.798900,-9.743815950751305,-0.33257621426135303,-1.0879046583920717,39.89403850000235,-0.03265377581119538,0.0032610287144780163,-0.0036252737045288086,39.89403850000235,-9.774972839355469,-0.3308120727539063,-1.09452392578125,39.89403850000235,-2.0961742848157883e-05,-0.0015186157543212175,-0.0025005005300045013,39.89403850000235
2025-10-06 13:45:35.943827,-9.743796654939652,-0.3329312498867512,-1.0879743864387275,40.03304450001451,-0.029828985929489137,0.0034663390740752222,-0.008346315622329712,40.03304450001451,-9.77302688598633,-0.3299139404296875,-1.0942245483398438,40.03304450001451,0.0010996772907674313,-0.00014318578178063035,0.0014113362412899733,40.03304450001451
2025-10-06 13:45:36.062032,-9.743793731331825,-0.33293084789067506,-1.0880140744149684,40.15219270833768,-0.030731211304664614,-0.0008750358223915101,-0.013545805960893631,40.15219270833768,-9.773925018310548,-0.3339555358886719,-1.101409606933594,40.15219270833768,0.0019882689230144024,-1.8091057427227497e-05,-0.0016329535283148289,40.15219270833768
2025-10-06 13:45:36.197184,-9.743786714673043,-0.3334390074759722,-1.0879161335527898,40.29119870834984,-0.02834320843219757,0.0157995055988431,-0.004362169057130814,40.29119870834984,-9.770781555175782,-0.3183879089355469,-1.0906320190429688,40.29119870834984,0.0008836057968437672,-0.00036064349114894867,0.00038664834573864937,40.29119870834984
2025-10-06 13:45:36.328155,-9.743790807724,-0.3337798636034131,-1.087768710628152,40.42027570834034,-0.03297829627990723,-0.002121625654399395,-0.006455326080322266,40.42027570834034,-9.776020660400391,-0.3357518005371094,-1.093027038574219,40.42027570834034,0.0004400317557156086,-0.00045853128540329635,-0.0011178739368915558,40.42027570834034
2025-10-06 13:45:36.463238,-9.743845186829567,-0.3334210638329387,-1.0873762162774803,40.5592817083525,-0.02903084099292755,0.0011121038720011713,-0.011189085692167283,40.5592817083525,-9.773326263427736,-0.33141082763671875,-1.098116455078125,40.5592817083525,-0.001772081945091486,-0.0017769826808944345,-0.0013187117874622345,40.5592817083525
2025-10-06 13:45:36.592151,-9.743870914578439,-0.33288143891841177,-1.0873311196267605,40.67842970835045,-0.022419978976249696,0.005362518019974232,-0.007941688299179078,40.67842970835045,-9.767638092041016,-0.32841705322265624,-1.0958711242675783,40.67842970835045,-0.0008804001845419407,0.00033271859865635633,-0.0014558960683643818,40.67842970835045
2025-10-06 13:45:36.731405,-9.743868575692177,-0.3330235262587667,-1.0872916509211064,40.82736470835516,-0.03170184910297394,-0.0012313870713114739,-0.0051360480487346654,40.82736470835516,-9.775571594238281,-0.3362008666992188,-1.0927276611328125,40.82736470835516,0.0010530734434723854,0.0009194082813337445,-0.0010283393785357475,40.82736470835516
2025-10-06 13:45:36.873118,-9.743877346515657,-0.33271439127624036,-1.087312773987651,40.96637070833822,-0.02585580289363861,-0.0004926644638180733,-0.010204487666487695,40.96637070833822,-9.76973373413086,-0.33365615844726565,-1.098116455078125,40.96637070833822,-0.001579895382747054,-0.0014663033653050661,0.00038226740434765816,40.96637070833822
2025-10-06 13:45:36.994596,-9.743851618766785,-0.3330436626076698,-1.087444847971201,41.08551908333902,-0.021690831184387208,0.0016327984258532526,-0.009323970079421998,41.08551908333902,-9.767787780761719,-0.3303630065917969,-1.0972183227539063,41.08551908333902,-0.0006297435611486435,0.001066515687853098,-0.0019752955995500088,41.08551908333902
2025-10-06 13:45:37.118457,-9.743822967410088,-0.33316776975989343,-1.087667188346386,41.204668083344586,-0.027856720089912416,0.005798537582159043,-0.005658935308456421,41.204668083344586,-9.770631866455078,-0.3279679870605469,-1.0940748596191407,41.204668083344586,0.0006321766413748264,-0.0028359745629131794,-0.0018920493312180042,41.204668083344586
2025-10-06 13:45:37.245286,-9.743779113292694,-0.33373663075268273,-1.087874033600092,41.33374508333509,-0.02924660325050354,-0.004709530211985112,0.005026412755250931,41.33374508333509,-9.774374084472656,-0.3400927734375,-1.0837463378906251,41.33374508333509,0.00010273139923810959,0.0008471817709505558,-0.0022582709789276123,41.33374508333509
2025-10-06 13:45:37.372335,-9.743733505010605,-0.3339632103592158,-1.0882317370176315,41.462822083354695,-0.026300776004791263,0.004797640442848206,-0.010035137683153153,41.462822083354695,-9.77018280029297,-0.32751892089843754,-1.1012599182128906,41.462822083354695,0.0028796857222914696,0.0007098830537870526,0.0006610534619539976,41.462822083354695
2025-10-06 13:45:37.496819,-9.743714793920518,-0.3341232413426042,-1.0883440766483545,41.5918990833452,-0.029012714624404908,0.0021136953681707383,-0.009921555519104005,41.5918990833452,-9.771829376220703,-0.33260833740234375,-1.0985655212402343,41.5918990833452,-0.0012420606799423695,4.046288086101413e-05,0.001221740385517478,41.5918990833452
2025-10-06 13:45:37.631366,-9.743733505010605,-0.33444885816425085,-1.0880672109872103,41.711047083343146,-0.03647785484790802,0.00842686101794243,-0.003762025460600853,41.711047083343146,-9.78170883178711,-0.32721954345703125,-1.0921289062500001,41.711047083343146,0.000331011600792408,-0.0001817213196773082,-0.0019338489510118961,41.711047083343146
2025-10-06 13:45:37.749846,-9.743727073073387,-0.3340140445902944,-1.0882553451508283,41.84012408333365,-0.028401095867156983,-0.0003904843702912331,-0.010908492431044579,41.84012408333365,-9.768985290527345,-0.3327580261230469,-1.0984158325195312,41.84012408333365,0.0002697352319955826,0.0005659133894369006,0.00016919011250138283,41.84012408333365
2025-10-06 13:45:37.871247,-9.743699591159821,-0.33447367228567604,-1.0883651266247034,41.9592720833316,-0.033667683005332946,0.0050088345631957056,-0.0063079031556844715,41.9592720833316,-9.77452377319336,-0.33215927124023437,-1.0973680114746094,41.9592720833316,0.0016761613078415394,-0.0009058273863047361,-0.0014027426950633526,41.9592720833316
2025-10-06 13:45:37.995749,-9.743651643991472,-0.33482761155813934,-1.088691620528698,42.08834833334549,-0.025633023977279665,0.0013211418315768242,-0.00403574824333191,42.08834833334549,-9.770332489013672,-0.3335064697265625,-1.0918295288085937,42.08834833334549,0.0010940865613520145,-0.0005430356250144541,-0.001496379729360342,42.08834833334549
2025-10-06 13:45:38.120584,-9.743614221811296,-0.3349396953731775,-1.0889880012720823,42.20749733335106,-0.03270581603050232,0.008468595519661904,-0.0008957934379577637,42.20749733335106,-9.773475952148438,-0.3242257690429688,-1.0903326416015626,42.20749733335106,-0.001565414248034358,-0.00017996050883084536,0.00021254271268844604,42.20749733335106
2025-10-06 13:45:38.249316,-9.743653398156166,-0.3346196699514985,-1.0887915348261594,42.33657433334156,-0.02817597806453705,0.010226487815380096,-0.011460542678833008,42.33657433334156,-9.763297119140626,-0.33021331787109376,-1.0900332641601562,42.33657433334156,0.001960163936018944,-0.002097469987347722,-0.00027115410193800926,42.34650333333411
2025-10-06 13:45:38.370005,-9.743665092587472,-0.3347534615546465,-1.0885944105684757,42.45572233333951,-0.028763038516044618,0.00708481539040804,-0.0008396601676940918,42.45572233333951,-9.7716796875,-0.3279679870605469,-1.088536376953125,42.45572233333951,0.00019020633772015572,-0.00015949184307828546,-0.0015388382598757744,42.45572233333951
2025-10-06 13:45:38.515910,-9.743626500964165,-0.33480849847197536,-1.0889255091547967,42.60465733334422,-0.032094781994819646,0.007139888852834702,-0.0021552836894989016,42.60465733334422,-9.775721282958985,-0.3276686096191406,-1.0906320190429688,42.60465733334422,0.0008915960788726807,-0.0011291876435279846,-0.0006585735827684402,42.60465733334422
2025-10-06 13:45:38.645687,-9.743663338422776,-0.3348345916718245,-1.08858542047441,42.73373433333472,-0.030411368608474734,0.00536971740424633,-0.006387498378753662,42.73373433333472,-9.772428131103515,-0.32811767578125,-1.095721435546875,42.73373433333472,-0.00022421032190322876,0.000557882827706635,0.00032587768509984016,42.73373433333472
2025-10-06 13:45:38.766878,-9.743614806532861,-0.3349826358631253,-1.0889657087624074,42.85288233333267,-0.030758693218231204,0.007014685347676277,0.00042925871908664707,42.85288233333267,-9.773925018310548,-0.32811767578125,-1.0900332641601562,42.85288233333267,-0.0004096939228475094,-0.00128014269284904,-0.0014713332056999207,42.85288233333267
2025-10-06 13:45:38.885597,-9.743679125905038,-0.334726381637156,-1.0884857985377312,42.98195933335228,-0.03413896858692169,-0.0017739355936646462,-0.004690782576799393,42.98195933335228,-9.777966613769532,-0.33440460205078126,-1.0925779724121094,42.98195933335228,-0.0004566865973174572,0.002450356725603342,-0.001055633183568716,42.98195933335228
2025-10-06 13:45:39.011412,-9.743672109246255,-0.3346672151237726,-1.0885409085452558,43.1011089583335,-0.02486236095428467,0.002358328253030777,-0.009425492361187936,43.1011089583335,-9.77018280029297,-0.33185989379882813,-1.0984158325195312,43.1011089583335,-0.001469035865738988,0.0019651297479867935,0.001552727771922946,43.1011089583335
2025-10-06 13:45:39.154152,-9.743632348179817,-0.3346217530220747,-1.0889412235468627,43.24011495834566,-0.02909632980823517,-8.229956030845643e-05,-0.014265013486146928,43.24011495834566,-9.774224395751954,-0.3335064697265625,-1.1033555603027345,43.24011495834566,0.000516936182975769,-0.0032543984707444906,0.0013979636132717133,43.24011495834566
2025-10-06 13:45:39.285392,-9.743608374595643,-0.3345803839713335,-1.0891541352868082,43.36919195833616,-0.02148500919342041,0.009007416442036629,-0.00806447982788086,43.36919195833616,-9.767189025878906,-0.3255729675292969,-1.0952723693847657,43.36919195833616,-0.0006953445263206959,-0.0018047448247671127,0.0016980983782559633,43.36919195833616
2025-10-06 13:45:39.405133,-9.743598434329034,-0.3343037010356784,-1.0893204885721208,43.498268958355766,-0.022242808341979982,0.0019947776198387147,-0.0104430540651083,43.498268958355766,-9.765692138671875,-0.3311114501953125,-1.1003617858886718,43.498268958355766,0.0008827950805425644,-0.00012576795415952802,0.0015223033260554075,43.498268958355766
2025-10-06 13:45:39.543008,-9.743572121858596,-0.33422542143613104,-1.0895909953862428,43.617416958353715,-0.026161612272262574,0.0031139712408185007,0.000905148983001709,43.617416958353715,-9.769134979248047,-0.3335064697265625,-1.0864407348632814,43.617416958353715,0.0010745367035269737,0.0014653924154117703,0.001035080524161458,43.617416958353715
2025-10-06 13:45:39.674404,-9.743553995490075,-0.3344143595919013,-1.089684185385704,43.766351958329324,-0.029621994495391848,0.0024047770723700525,-0.011724763736128808,43.766351958329324,-9.77407470703125,-0.329315185546875,-1.1039543151855469,43.766351958329324,0.0016438537277281284,-0.0025219162926077843,-0.0023219375871121883,43.766351958329324
2025-10-06 13:45:39.802288,-9.743596680164337,-0.3341204273700714,-1.0893976718187333,43.895429958356544,-0.023592345714569092,0.002559911012649536,-0.014706916809082033,43.895429958356544,-9.769434356689453,-0.3308120727539063,-1.1032058715820312,43.895429958356544,0.0017942283302545547,-0.001006138976663351,0.00023968517780303955,43.895429958356544
2025-10-06 13:45:39.941415,-9.743649889826775,-0.3341460454836488,-1.0889150572568178,44.0344359583396,-0.021593182682991027,0.0033339361846446993,-0.01863156795501709,44.0344359583396,-9.763746185302734,-0.32901580810546877,-1.1094927978515625,44.0344359583396,0.00039487332105636597,-0.0007438165484927595,0.0004912239965051413,44.0344359583396
2025-10-06 13:45:40.087605,-9.743689066171646,-0.33474896650761365,-1.0883632262796163,44.173441333347,-0.025893225073814394,0.0015419838577508927,-0.01065106876194477,44.173441333347,-9.770631866455078,-0.3320095825195313,-1.0949729919433595,44.173441333347,0.000893731601536274,-0.0001434379373677075,0.0007449865806847811,44.173441333347
2025-10-06 13:45:40.206244,-9.743666846752168,-0.33451785530894995,-1.0886592415720224,44.3025183333375,-0.02636743426322937,0.005052944496273994,-0.010804631263017655,44.3025183333375,-9.76973373413086,-0.32706985473632816,-1.0976673889160158,44.3025183333375,0.0005822950042784214,0.0001593930646777153,-0.0012286659330129623,44.3025183333375
2025-10-06 13:45:40.334085,-9.743680880069734,-0.33486243903636936,-1.0884212598949672,44.42166633333545,-0.026501920223236084,0.0015056580305099487,-0.009994060993194581,44.42166633333545,-9.767937469482423,-0.3342549133300781,-1.0987152099609376,44.42166633333545,0.00018466031178832054,-0.0001434673322364688,0.0006705359555780888,44.42166633333545
2025-10-06 13:45:40.466717,-9.743647550940514,-0.3350146859139204,-1.088663773164153,44.55074333335506,-0.02788186311721802,0.0030051399394869804,-0.00885378085076809,44.55074333335506,-9.7716796875,-0.33126113891601566,-1.098116455078125,44.55074333335506,0.0013170912861824036,2.9710703529417515e-05,0.0015236919280141592,44.55074333335506
2025-10-06 13:45:40.597160,-9.743616560697555,-0.33505415461957455,-1.0889260938763619,44.679821333353175,-0.021176276206970216,0.00678682666271925,0.0030839677155017854,44.679821333353175,-9.76449462890625,-0.3273692321777344,-1.0850935363769532,44.679821333353175,0.00011640507727861404,-0.0017364496598020196,0.0016033952124416828,44.679821333353175
2025-10-06 13:45:40.727248,-9.743628255128861,-0.3344372733682394,-1.0890211111307144,44.81882733333623,-0.024608591794967653,0.005720842704176903,-0.002508455514907837,44.81882733333623,-9.769434356689453,-0.32721954345703125,-1.0916798400878907,44.81882733333623,-0.0015253806486725807,0.0020727324299514294,0.0003768792375922203,44.81882733333623
2025-10-06 13:45:40.862074,-9.743589663505555,-0.3345205596461892,-1.0893407345563173,44.94790433335584,-0.034077572822570804,0.0010140899196267128,-0.006829547882080078,44.94790433335584,-9.778265991210938,-0.3335064697265625,-1.094374237060547,44.94790433335584,-0.002329648705199361,-0.0016482376959174871,-0.000977231189608574,44.94790433335584
2025-10-06 13:45:40.997911,-9.743555164933206,-0.3342765480279923,-1.0897257737070323,45.08691095834365,-0.02632825791835785,0.0064582862332463265,0.0008899462223052979,45.08691095834365,-9.771529998779297,-0.3263214111328125,-1.0882369995117187,45.08691095834365,0.001572372391819954,0.0012966451467946172,0.00041564367711544037,45.08691095834365
2025-10-06 13:45:41.130280,-9.74352125108242,-0.3347236042097211,-1.0898820405453444,45.21598795833415,-0.03624045789241791,0.005408455207943917,-0.004192307442426681,45.21598795833415,-9.778565368652345,-0.33006362915039067,-1.0970686340332032,45.21598795833415,-0.00040096696466207504,0.0016549329739063978,-0.00014190701767802238,45.21598795833415
2025-10-06 13:45:41.270840,-9.743500785827637,-0.3352629002183676,-1.089905941039324,45.36492395834648,-0.024885749816894533,0.011186819896101952,0.007955721616744996,45.36492395834648,-9.767488403320312,-0.324525146484375,-1.0837463378906251,45.36492395834648,-0.00016920268535614014,-2.4768465664237738e-05,-0.0001137005165219307,45.36492395834648
2025-10-06 13:45:41.406695,-9.743539377450944,-0.3353177544102073,-1.089543194398284,45.49400095833698,-0.02634404540061951,0.003906926773488522,-0.0076750552654266365,45.49400095833698,-9.770631866455078,-0.3315605163574219,-1.0952723693847657,45.49400095833698,0.0014908639714121819,-0.0001860631164163351,-0.0007602106779813766,45.49400095833698
2025-10-06 13:45:41.558626,-9.743579138517381,-0.33530214965343474,-1.0891846138983965,45.642935958341695,-0.02690186977386475,0.011375794596970083,-0.00997988149523735,45.642935958341695,-9.768835601806641,-0.32302825927734374,-1.0985655212402343,45.642935958341695,0.0006598038598895073,0.0008133445517159998,0.0006892695091664791,45.642935958341695
2025-10-06 13:45:41.691780,-9.74354230105877,-0.3357707674428821,-1.0893715055286886,45.781941958353855,-0.02843617916107178,0.005108419954776764,-0.009343777522444726,45.781941958353855,-9.773176574707032,-0.3320095825195313,-1.0985655212402343,45.781941958353855,-0.00211521377786994,-0.0003285832644905895,-0.0004419507458806038,45.781941958353855
2025-10-06 13:45:41.833924,-9.74350897192955,-0.33605278596282007,-1.0895983044058084,45.920948958344525,-0.02592655420303345,0.011826980374753476,0.0015107743442058564,45.920948958344525,-9.770631866455078,-0.32407608032226565,-1.0882369995117187,45.920948958344525,0.0009901109151542187,0.00028859166195616126,-0.003053557127714157,45.920948958344525
2025-10-06 13:45:41.960951,-9.743462778925895,-0.33631291396915913,-1.0899245059490204,46.05002595833503,-0.022977803349494934,0.01223687019199133,-0.005796929597854615,46.05002595833503,-9.766141204833986,-0.3243754577636719,-1.096769256591797,46.05002595833503,0.00028413673862814903,-0.00025918075698427856,-0.00123234698548913,46.05002595833503
2025-10-06 13:45:42.091455,-9.743370392918587,-0.3360995636880398,-1.0908077278733255,46.179102458350826,-0.028608087301254272,0.004389395155012608,-0.0050636156648397445,46.179102458350826,-9.770781555175782,-0.33320709228515627,-1.0963201904296875,46.179102458350826,0.0011212890967726707,0.000774947926402092,0.0012427184265106916,46.179102458350826
2025-10-06 13:45:42.218425,-9.743324199914932,-0.3359759681671858,-1.0912676844745874,46.30817945834133,-0.041228717565536505,0.011001792065799237,-0.003704795837402344,46.30817945834133,-9.78410385131836,-0.32721954345703125,-1.096769256591797,46.30817945834133,-0.0003161551430821419,0.000836603925563395,-0.00020346837118268013,46.30817945834133
2025-10-06 13:45:42.357457,-9.743335894346238,-0.3363044720515609,-1.0910425666719676,46.447186458332,-0.02684515178203583,0.01222846481949091,-0.006924053505063058,46.447186458332,-9.770033111572266,-0.3251239013671875,-1.0966195678710937,46.447186458332,-0.00014290353283286095,0.00010561035014688969,-0.000506415031850338,46.447186458332
2025-10-06 13:45:42.484548,-9.743362791538239,-0.33626617278903725,-1.0908274622261525,46.576263458351605,-0.0242753005027771,0.004705656431615353,0.0016921842098236086,46.576263458351605,-9.769134979248047,-0.3342549133300781,-1.0886860656738282,46.576263458351605,-7.21123069524765e-05,0.0003490719245746732,-0.0023168264888226986,46.576263458351605
2025-10-06 13:45:42.633807,-9.743327708244324,-0.3357548703253269,-1.0913037179410459,46.72519845835632,-0.02535820484161377,0.009583147913217545,-0.003370335102081299,46.72519845835632,-9.76733871459961,-0.32572265625,-1.0952723693847657,46.72519845835632,-0.0007445067167282104,0.0019986957777291536,0.0023483752738684416,46.72519845835632
2025-10-06 13:45:42.784360,-9.74335051238537,-0.33547588504850867,-1.0911894779652358,46.874133458331926,-0.024437268376350404,0.0006222168356180191,-0.008872565031051636,46.874133458331926,-9.765692138671875,-0.3357518005371094,-1.0984158325195312,46.874133458331926,-0.0022035688161849976,0.0014496722724288702,-0.0019596274942159653,46.874133458331926
2025-10-06 13:45:42.907854,-9.743278591632844,-0.3355716697499156,-1.0918005120009184,46.99328245833749,-0.03169424772262573,0.0098490134999156,-0.0012267458438873292,46.99328245833749,-9.774374084472656,-0.3261717224121094,-1.09452392578125,46.99328245833749,0.002640807069838047,0.0019735146779567003,0.00010293396189808846,46.99328245833749
2025-10-06 13:45:43.028049,-9.743213687539102,-0.3350641679763794,-1.0925328026711942,47.1223599583318,-0.03340572774410248,0.0020067278668284417,0.0036966097354888916,47.1223599583318,-9.775721282958985,-0.33245864868164066,-1.0880873107910156,47.1223599583318,0.0005675102584064007,0.0010172701440751553,0.00272547104395926,47.1223599583318
2025-10-06 13:45:43.154525,-9.743188544511796,-0.3347480163350702,-1.0928419011086226,47.24150795832975,-0.03043592691421509,0.006480688378214836,-0.007818750590085983,47.24150795832975,-9.773475952148438,-0.3285667419433594,-1.0988648986816407,47.24150795832975,6.291363388299942e-05,0.000257927633356303,0.0017187283374369144,47.24150795832975
2025-10-06 13:45:43.281242,-9.743207840323448,-0.33459401529282334,-1.0927225448191167,47.370584958349355,-0.023381845951080324,0.0031832242012023925,0.0002947727590799332,47.370584958349355,-9.767488403320312,-0.329315185546875,-1.093176727294922,47.370584958349355,0.001203176099807024,-0.0023405984975397587,0.0033335192129015923,47.370584958349355
2025-10-06 13:45:43.400512,-9.743206670880317,-0.33419117867946624,-1.092860904559493,47.48973395835492,-0.030568658709526065,0.0023312848806381226,0.0010314488410949707,47.48973395835492,-9.774374084472656,-0.3335064697265625,-1.0916798400878907,47.48973395835492,-0.003450162708759308,0.0006016572006046772,-0.00022245477885007858,47.48973395835492
2025-10-06 13:45:43.523648,-9.743270990252496,-0.3336207462474704,-1.0924678254872562,47.60888195835287,-0.013890060782432557,0.004155871979892254,-0.002205715924501419,47.60888195835287,-9.75686050415039,-0.33006362915039067,-1.0936257934570313,47.60888195835287,-0.0012279152870178223,-0.0009450775687582791,0.0002713259309530258,47.60888195835287
2025-10-06 13:45:43.651540,-9.743342911005021,-0.33321323186159135,-1.0919472771137952,47.73795895834337,-0.03103117346763611,0.00539493352174759,0.0047584640979766845,47.73795895834337,-9.771979064941407,-0.326920166015625,-1.099164276123047,47.73795895834337,0.001884707249701023,0.0009141057380475104,-9.014084935188293e-05,47.74788795833592
2025-10-06 13:45:43.782309,-9.7433516818285,-0.3339161768183112,-1.091658351570368,47.86703595833387,-0.0316223269701004,0.004151888564229012,-0.00810438707470894,47.86703595833387,-9.775421905517579,-0.3338058471679688,-1.1003617858886718,47.86703595833387,0.0002482086420059204,0.0019983926322311163,-0.00039748242124915123,47.86703595833387
2025-10-06 13:45:43.909390,-9.743412492871284,-0.3337409065291286,-1.0911616306006908,47.99611395833199,-0.029315015673637392,0.0026294563338160517,-0.0033621490001678467,47.99611395833199,-9.77452377319336,-0.3303630065917969,-1.0924282836914063,47.99611395833199,0.00040315836668014526,-0.002664840081706643,0.00018168659880757332,47.99611395833199
2025-10-06 13:45:44.034277,-9.74343529701233,-0.33342793431133033,-1.0910480484366418,48.12519058334874,-0.030938202738761904,-0.004120094329118729,0.0010151497274637222,48.12519058334874,-9.772428131103515,-0.3373983764648438,-1.0894345092773439,48.12519058334874,-0.0010725841857492924,0.0005019264062866569,-0.001817246899008751,48.12519058334874
2025-10-06 13:45:44.161035,-9.743432373404504,-0.33313243065029385,-1.0911785144358874,48.24433858334669,-0.03618198573589325,0.006361916810274124,0.002042870968580246,48.24433858334669,-9.780062255859375,-0.3276686096191406,-1.0898835754394531,48.24433858334669,0.0009509450756013393,0.0007916799513623118,6.888015195727348e-05,48.24433858334669
2025-10-06 13:45:44.282404,-9.743516573309899,-0.3327187766879797,-1.0905586364865303,48.37341558333719,-0.03055930316448212,-0.0004883521422743797,-0.020880553275346755,48.37341558333719,-9.773475952148438,-0.33260833740234375,-1.1108399963378908,48.37341558333719,-0.0008574328385293484,-0.00026149587938562036,0.002657500561326742,48.37341558333719
2025-10-06 13:45:44.427628,-9.743506048321725,-0.33192757532000544,-1.0908898812532426,48.512422583356965,-0.02413321316242218,0.007102978304028512,-4.2246133089065554e-05,48.512422583356965,-9.76973373413086,-0.3227288818359375,-1.0918295288085937,48.512422583356965,-0.0003517349250614643,-0.000753849686589092,-0.00017507001757621765,48.512422583356965
2025-10-06 13:45:44.556310,-9.743464533090592,-0.3318875949829817,-1.0912627874314786,48.64149958334747,-0.027466710805892944,0.0009258335083723069,-0.004309397935867309,48.64149958334747,-9.771380310058595,-0.33006362915039067,-1.0952723693847657,48.64149958334747,0.0004062582738697529,0.00026895030168816447,0.001579065341502428,48.64149958334747
2025-10-06 13:45:44.682979,-9.743432373404504,-0.33119751390069724,-1.0917549037188292,48.77057658333797,-0.032737975716590886,0.0012835369259119034,-0.0027692413330078127,48.77057658333797,-9.775272216796875,-0.3291654968261719,-1.0948233032226562,48.77057658333797,0.0008252137340605259,0.0014205316547304392,0.0038022520020604134,48.77057658333797
2025-10-06 13:45:44.805385,-9.743474473357201,-0.3307008294761181,-1.0915325633436441,48.89965458333609,-0.028504591584205628,0.0015353326499462129,-0.0034405016899108887,48.89965458333609,-9.770931243896484,-0.33126113891601566,-1.093326416015625,48.89965458333609,-0.0021468517370522022,-0.000774072133935988,-0.00046833697706460953,48.89965458333609
2025-10-06 13:45:44.935579,-9.743465702533722,-0.3301473539695144,-1.0917776347696782,49.02873158335569,-0.024172389507293703,0.002927847057580948,-0.0025961637496948243,49.02873158335569,-9.768985290527345,-0.32602203369140625,-1.0936257934570313,49.02873158335569,2.4290289729833603e-05,-3.988356911577284e-05,-0.0018913173116743565,49.02873158335569
2025-10-06 13:45:45.077888,-9.743433542847633,-0.3296307159215212,-1.0922248736768962,49.16773783334065,-0.02615050256252289,-0.0037260650843381885,-0.0060413432121276854,49.16773783334065,-9.77123062133789,-0.33171020507812504,-1.099463653564453,49.16773783334065,-1.4156103134155273e-05,0.00011284925858490169,-0.0013629947789013386,49.16773783334065
2025-10-06 13:45:45.208470,-9.743455177545547,-0.32939079735428095,-1.0921063213795423,49.29681583333877,-0.03376299262046814,0.003967518545687199,-0.0007706630229949951,49.29681583333877,-9.776619415283204,-0.32407608032226565,-1.0915301513671876,49.29681583333877,-0.002142667304724455,-0.0009801882551982999,-0.0016488428227603436,49.29681583333877
2025-10-06 13:45:45.333512,-9.743386765122414,-0.32914495848119263,-1.0927865718305112,49.42589283332927,-0.03293327271938324,0.00042856436222791675,-0.008024718761444092,49.42589283332927,-9.774673461914062,-0.3311114501953125,-1.0997630310058595,49.42589283332927,-0.0005622375756502151,-0.0005745728267356753,-0.00024817418307065964,49.42589283332927
