timestamp,gravity_x,gravity_y,gravity_z,gravity_time,lin_acc_x,lin_acc_y,lin_acc_z,lin_acc_time,acc_x,acc_y,acc_z,acc_time,gyro_x,gyro_y,gyro_z,gyro_time
2025-10-06 13:42:40.467744,0.07522678195964545,-0.2216969621926546,-9.807205615639687,6.161667583335657,-0.02133884250652045,0.00644458182156086,0.004091881513595581,6.161667583335657,0.05194198608398438,-0.21405487060546877,-9.806557159423829,6.166631583328126,0.0003535742871463299,0.000606136629357934,-0.000937984324991703,6.161667583335657
2025-10-06 13:42:40.585996,0.07463258607778699,-0.22187292683869603,-9.807207369804383,6.280814583325991,-0.014008654193021358,-0.0025104654952883723,0.0037936735153198246,6.280814583325991,0.062420196533203125,-0.22243743896484375,-9.804311828613281,6.285779583326075,0.001536291092634201,-0.001334948232397437,-0.00014663813635706902,6.280814583325991
2025-10-06 13:42:40.703102,0.07459131752606482,-0.222072974704206,-9.807202107310296,6.399961583316326,-0.019206500002183022,0.0011324594914913179,0.0015436649322509766,6.399961583316326,0.05583389282226563,-0.2183958435058594,-9.803413696289063,6.40492658331641,0.002180776558816433,-0.0011359128402546048,-0.0012495415285229683,6.399961583316326
2025-10-06 13:42:40.826482,0.07336125064641237,-0.22137872748076917,-9.807227835059166,6.519108041655272,-0.016479527642950416,0.005377885233610869,0.004861375093460084,6.519108041655272,0.056133270263671875,-0.21644989013671875,-9.803413696289063,6.524073041655356,-0.0014998854603618383,0.0005521220155060291,-0.0014394009485840797,6.519108041655272
2025-10-06 13:42:40.952170,0.07236799143254757,-0.22150782303884625,-9.807233682274818,6.648184041667264,-0.02192287428304553,0.0047584823705255986,0.005764185190200806,6.648184041667264,0.04939727783203125,-0.2165995788574219,-9.802964630126954,6.653149041667348,0.0017069140449166298,-0.0002439549716655165,0.00028216559439897537,6.648184041667264
2025-10-06 13:42:41.110643,0.07169777261093259,-0.22119609335437418,-9.80724713087082,6.807047041656915,-0.015714172795414927,-0.0013910891488194467,0.010567088127136231,6.807047041656915,0.056582336425781254,-0.223934326171875,-9.799821166992189,6.812011041649384,0.00012367358431220055,0.0006483042379841208,-0.00016717100515961647,6.807047041656915
2025-10-06 13:42:41.258676,0.07106439581606537,-0.22087838854640723,-9.807255316972734,6.936123041668907,-0.01627832860685885,0.004428516682237387,0.004291271567344665,6.936123041668907,0.0556842041015625,-0.21570144653320314,-9.802665252685548,6.941087041661376,-0.001008301042020321,-0.0006008518394082785,-0.0012665684334933758,6.936123041668907
2025-10-06 13:42:41.381896,0.07046535770874471,-0.22094451690092684,-9.807259994745255,7.075128041644348,-0.016727097840048374,-0.004935780912637711,0.004144506454467773,7.075128041644348,0.05553451538085938,-0.22468276977539064,-9.80281494140625,7.080092041665921,0.0006895996630191803,0.0003964049101341516,-0.0014457134529948235,7.075128041644348
2025-10-06 13:42:41.513214,0.0699295380525291,-0.22111289843916895,-9.807259994745255,7.214133041648893,-0.014395013535395266,-0.001174851804971695,0.007287969589233399,7.214133041648893,0.06152206420898438,-0.22303619384765627,-9.808203735351563,7.209168041648809,-0.0008705062791705132,-0.0012529155937954783,0.0024507674388587475,7.214133041648893
2025-10-06 13:42:41.666857,0.0697135017067194,-0.22057546623051166,-9.807275782227517,7.363067041645991,-0.015077100377529861,-6.576290354132653e-05,0.0011647653579711914,7.363067041645991,0.05942642211914063,-0.22094055175781252,-9.79278579711914,7.358102041645907,-0.0009039593860507011,0.0015368963358923793,-0.0010818024165928364,7.363067041645991
2025-10-06 13:42:41.805481,0.06985890094656498,-0.2209364587068558,-9.807265841960907,7.492142041650368,-0.01148028159979731,-0.002249496951699257,0.002203230857849121,7.492142041650368,0.058977355957031255,-0.22303619384765627,-9.805060272216798,7.497107041650452,0.00027728499844670296,0.002331643830984831,0.0004623602144420147,7.492142041650368
2025-10-06 13:42:41.938680,0.06943237397354096,-0.22068188555538656,-9.807272273898125,7.6410756666446105,-0.018388520213775336,-0.002354308292269707,0.009695852994918824,7.6410756666446105,0.0484991455078125,-0.21540206909179688,-9.797875213623048,7.636111666652141,-0.0004557729698717594,-0.0008400387014262378,0.0014731581322848797,7.6410756666446105
2025-10-06 13:42:42.085175,0.06915144267026335,-0.22068278091028334,-9.807274612784386,7.780080666649155,-0.012120040082372725,-0.0105862925760448,0.00251313328742981,7.780080666649155,0.05433700561523438,-0.2293231201171875,-9.802665252685548,7.785045666649239,-5.7688914239406586e-05,0.003974044229835272,-0.0013709492050111294,7.780080666649155
2025-10-06 13:42:42.209192,0.06905135478358716,-0.22136546161025764,-9.80725941002369,7.899227666668594,-0.008577102483250202,0.004616175759583712,0.0011507320404052735,7.899227666668594,0.06077362060546875,-0.21749771118164063,-9.805060272216798,7.904192666668678,-0.000853358767926693,-0.0017534891376271844,0.0024441354908049107,7.899227666668594
2025-10-06 13:42:42.350125,0.06875840014312416,-0.22065268602222204,-9.807275197505952,8.048161666665692,-0.011727015827782452,0.002556274775415659,-0.004668416976928711,8.048161666665692,0.052241363525390626,-0.21929397583007815,-9.796677703857423,8.043196666665608,-0.0005729999393224716,-0.00232077413238585,-0.0012533776462078094,8.048161666665692
2025-10-06 13:42:42.482920,0.06768332559149713,-0.22073281114920976,-9.80728162944317,8.17723766664858,-0.019633259950205685,-0.0027524123154580595,-0.0013700026273727418,8.17723766664858,0.048648834228515625,-0.22363494873046877,-9.807305603027345,8.182201666670153,-0.0023594542872160673,-0.001476355828344822,-0.0007718740962445736,8.17723766664858
2025-10-06 13:42:42.608281,0.0677155035501346,-0.22054692450910807,-9.807288646101952,8.306313666660571,-0.013827545824460686,0.002001337464898825,0.0005800437927246094,8.306313666660571,0.05134323120117188,-0.2197430419921875,-9.806856536865235,8.31127766665304,0.00035652611404657364,0.0007732369122095406,0.003706053365021944,8.306313666660571
2025-10-06 13:42:42.725047,0.06786152862478048,-0.2206882444024086,-9.807283383607865,8.425460666650906,-0.0159195425407961,0.0039389768242836,0.00327093243598938,8.425460666650906,0.05523513793945313,-0.21899459838867188,-9.795031127929688,8.420495666650822,2.0128674805164337e-05,3.918010042980313e-05,8.444441482424736e-05,8.425460666650906
2025-10-06 13:42:42.844912,0.06730624413583428,-0.2201336177252233,-9.807301509976387,8.544607666670345,-0.01521456019487232,0.0008396236225962639,0.004933880567550659,8.544607666670345,0.06002517700195313,-0.21121078491210937,-9.797875213623048,8.539642666670261,-0.002625184366479516,-0.00024598473100923,0.00019942782819271088,8.544607666670345
2025-10-06 13:42:42.967078,0.06624461818020791,-0.22030190790072085,-9.807301509976387,8.66375466666068,-0.009063531439751388,0.0011576390638947487,0.0059846252202987674,8.66375466666068,0.05822891235351563,-0.21869522094726562,-9.801767120361328,8.668718666653149,-0.001517832512035966,-0.001737468526698649,-0.0023827822878956795,8.66375466666068
2025-10-06 13:42:43.088022,0.06584227035753429,-0.22056453924626113,-9.807298586368562,8.782901666651014,-0.004619588158093393,0.005761243309825659,0.011369910836219788,8.782901666651014,0.059725799560546876,-0.2137554931640625,-9.796827392578125,8.787865666643484,-2.9548536986112595e-05,0.0005109641933813691,-0.00036700256168842316,8.782901666651014
2025-10-06 13:42:43.214566,0.06582257254980504,-0.22109380362555386,-9.807288646101952,8.911977666663006,-0.008491792520508171,-0.0008945691771805287,0.014951330423355103,8.911977666663006,0.0508941650390625,-0.22662872314453125,-9.801617431640626,8.907012666662922,0.0019813356921076775,-0.0020309502724558115,-0.00022987648844718933,8.911977666663006
2025-10-06 13:42:43.335716,0.0651872177515179,-0.22124274317175152,-9.807289230823518,9.03112466665334,-0.013095533810555936,-0.005086620803922415,0.010909734964370728,9.03112466665334,0.051492919921875005,-0.22722747802734375,-9.7956298828125,9.03608866664581,2.414640039205551e-05,0.00031624571420252323,-0.0015963995829224586,9.03112466665334
2025-10-06 13:42:43.486416,0.0641583316354081,-0.2217917236313224,-9.807281044721604,9.170128666650271,-0.00817476379685104,0.005641247481107712,0.014946067929267884,9.170128666650271,0.05358856201171875,-0.21585113525390626,-9.801168365478516,9.165164666657802,0.0011284793727099895,0.00043319142423570156,0.0018646749667823315,9.170128666650271
2025-10-06 13:42:43.610684,0.0642959239287302,-0.22128184642642737,-9.807292739152908,9.309133666654816,-0.006067016143351794,0.006029484327882528,-0.006748271584510804,9.309133666654816,0.053887939453125006,-0.21585113525390626,-9.80565902709961,9.304169666662347,-0.0008721696212887764,0.0007298297714442015,0.0017667938955128193,9.309133666654816
2025-10-06 13:42:43.732608,0.06430379939731211,-0.2208669499307871,-9.807305603027345,9.42828066664515,-0.0036798538081347946,0.0005250982381403447,-0.0029961133003234865,9.42828066664515,0.056582336425781254,-0.22423370361328127,-9.807455291748047,9.423316666652681,0.00024400930851697922,0.0009675683686509728,0.0010856487788259983,9.42828066664515
2025-10-06 13:42:43.871728,0.06416380883194507,-0.22069836739450693,-9.80730852663517,9.56728633333114,-0.00803052943199873,-9.251391515135766e-05,0.009133350849151612,9.56728633333114,0.0592767333984375,-0.21704864501953125,-9.796977081298829,9.562321333331056,0.00020060967653989792,6.066611967980862e-05,-0.0014397636987268925,9.56728633333114
2025-10-06 13:42:44.042986,0.06314864540006966,-0.22109104447066785,-9.807303848862649,9.736077333334833,-0.002824100092984736,-0.001196669228374958,0.02050677001476288,9.736077333334833,0.061072998046875,-0.22183868408203125,-9.787696380615236,9.741042333334917,-0.0010346928611397743,-0.00016774190589785576,-0.0004404517821967602,9.736077333334833
2025-10-06 13:42:44.197011,0.06277979115955531,-0.22068555833771825,-9.807314373850822,9.894940333324485,-0.01607692857272923,-0.001751789264380932,0.00255581796169281,9.894940333324485,0.060174865722656255,-0.223934326171875,-9.800569610595703,9.8899753333244,-0.0012278570793569088,0.00029526452999562025,-0.0013751937076449394,9.894940333324485
2025-10-06 13:42:44.341388,0.06272195397410542,-0.2208253067918122,-9.807316128015518,10.03394533332903,-0.008384930086322129,0.0039262956753373145,0.0019541394710540774,10.03394533332903,0.053438873291015626,-0.21689895629882813,-9.802964630126954,10.038909333321499,-0.001973858568817377,0.00034286343725398183,-0.00045075174421072006,10.03394533332903
2025-10-06 13:42:44.515910,0.06247792865149677,-0.2202073291875422,-9.807327822446824,10.212665333325276,-0.012781282514333726,-0.003128205556422472,0.013945024609565735,10.212665333325276,0.054636383056640626,-0.2183958435058594,-9.80416213989258,10.207701333332807,5.702301859855652e-05,9.128573583438993e-05,2.484302967786789e-06,10.212665333325276
2025-10-06 13:42:44.644540,0.06253934268839657,-0.22016758639365436,-9.80733074605465,10.341741333337268,-0.008202337073162199,0.0019214316084980967,0.0034673988819122316,10.341741333337268,0.05643264770507813,-0.21824615478515627,-9.805060272216798,10.346705333329737,-0.003909321501851082,-0.0018871380016207695,-0.000913089606910944,10.341741333337268
2025-10-06 13:42:44.788959,0.0624159435974434,-0.2199588042497635,-9.807338347434998,10.480746333312709,-0.007779546836391092,-0.004274954181164504,0.015598032474517824,10.480746333312709,0.051492919921875005,-0.223934326171875,-9.789492645263673,10.485710333334282,-0.002093481831252575,-0.0003681037633214146,0.00018473248928785324,10.480746333312709
2025-10-06 13:42:44.934639,0.061866104328073566,-0.2195289608091116,-9.807350626587867,10.629679541656515,-0.007529089576564729,-0.0017110049352049828,0.0021389114856719973,10.629679541656515,0.05643264770507813,-0.21944366455078126,-9.805808715820312,10.634644541656598,-0.0005998406559228897,-0.0011294488795101643,-0.000521794892847538,10.629679541656515
2025-10-06 13:42:45.067618,0.06132183818612248,-0.2200176053121686,-9.807340101599694,10.76868454166106,-0.006984832570888102,0.0049149136617779735,0.00033446073532104496,10.76868454166106,0.044307861328125,-0.2185455322265625,-9.810149688720704,10.76372054166859,-0.0016197666991502047,-0.0019019455648958683,-0.0024376162327826023,10.76868454166106
2025-10-06 13:42:45.208821,0.06074323792476207,-0.21960780685767534,-9.807353550195694,10.907689541665604,-0.008202496957965195,-0.000584301296621561,0.0013951456546783447,10.907689541665604,0.05837860107421875,-0.22288650512695313,-9.800270233154297,10.90272454166552,-0.002351565519347787,0.0009934700792655349,0.0011915573850274086,10.907689541665604
2025-10-06 13:42:45.343618,0.06023359826300294,-0.2197932001389563,-9.807352965474129,11.036765541648492,-0.009638801529072226,0.0010979609191417695,0.007680902481079102,11.036765541648492,0.05553451538085938,-0.21525238037109376,-9.797426147460937,11.031800541648408,-0.0005707135424017906,-0.0007594939670525491,0.000280856154859066,11.036765541648492
2025-10-06 13:42:45.471891,0.06007662336342037,-0.21952040925621988,-9.807357643246652,11.16584054165287,-0.007835278110578657,-0.004413862098008394,-0.007579745650291444,11.16584054165287,0.058977355957031255,-0.22348526000976562,-9.802066497802734,11.1608765416604,0.0008210372179746628,0.00028635066701099277,3.1447503715753555e-05,11.16584054165287
2025-10-06 13:42:45.632404,0.05988473875913769,-0.2194560167938471,-9.80736407518387,11.32470354164252,-0.009739008187316359,0.0028564196638762953,0.004997030496597291,11.32470354164252,0.0496966552734375,-0.2173480224609375,-9.801767120361328,11.329667541664094,0.0016954867169260979,0.0033098941203206778,0.0003400323912501335,11.32470354164252
2025-10-06 13:42:45.790817,0.05973450186196715,-0.21982324020937086,-9.80735413491726,11.483566541661276,0.004182572741992772,-0.0068054463900625705,0.01082728922367096,11.483566541661276,0.06032455444335938,-0.21869522094726562,-9.796378326416017,11.478601541661192,-0.0011266146320849657,0.00040069117676466703,-0.0011282567866146564,11.483566541661276
2025-10-06 13:42:45.927614,0.05947469362523407,-0.22050199231132867,-9.807339516878129,11.622569541650591,-0.0037904986599460247,-0.006126694288104773,0.016052361130714416,11.622569541650591,0.05643264770507813,-0.22782623291015627,-9.790390777587891,11.627534541650675,0.0010947352275252342,0.001210286864079535,-2.0917505025863647e-05,11.622569541650591
2025-10-06 13:42:46.073429,0.060011340114288034,-0.22093000849708916,-9.807327822446824,11.77150354164769,-0.0020818097703158857,0.0016360509395599366,-0.0031206589937210084,11.77150354164769,0.05763015747070313,-0.21674926757812502,-9.810748443603517,11.766538541647606,-0.0009631002321839333,0.0017984977457672358,0.0015094047412276268,11.77150354164769
2025-10-06 13:42:46.199564,0.06027811476029456,-0.22091367283836008,-9.80732840716839,11.890650541667128,4.6439683064818385e-05,0.009403492212295533,-0.00237280011177063,11.890650541667128,0.06122268676757813,-0.21390518188476565,-9.808952178955078,11.895614541659597,0.0003962400369346142,0.0017483026022091508,-0.00025553023442626,11.890650541667128
2025-10-06 13:42:46.354128,0.05927831397391856,-0.2206704286672175,-9.807341271042825,12.049512541649165,-0.0001512601599097252,-0.00251549044623971,0.0028779995441436767,12.049512541649165,0.05134323120117188,-0.21884490966796877,-9.80086898803711,12.044548541656695,0.0006906366907060146,0.0011275033466517925,-0.00023824023082852364,12.049512541649165
2025-10-06 13:42:46.490462,0.05926861125044525,-0.22025507535785438,-9.807350041866304,12.168659541668603,-0.01286509869620204,0.0027573641762137415,0.0048333084583282475,12.168659541668603,0.0461041259765625,-0.21630020141601564,-9.800270233154297,12.173624541668687,7.873168215155602e-05,0.0008125128806568682,0.0024284920655190945,12.168659541668603
2025-10-06 13:42:46.617016,0.05960384400095791,-0.21988613432273268,-9.807354719638825,12.307664541644044,0.002516975090838969,-0.00015630338340997697,0.010677015781402588,12.307664541644044,0.06316864013671876,-0.223934326171875,-9.802216186523438,12.30269954164396,-0.001861643511801958,-0.0018870518542826176,0.0004494599997997284,12.307664541644044
2025-10-06 13:42:46.744552,0.05993664650246501,-0.22004368023946883,-9.807350626587867,12.446669541648589,-0.004851183579303324,-0.004040389470756054,-0.001154240369796753,12.446669541648589,0.05313949584960938,-0.21989273071289064,-9.807455291748047,12.441704541648505,-0.0019166120328009129,-0.0004624773864634335,-0.0007066745311021805,12.446669541648589
2025-10-06 13:42:46.874249,0.06038568525575102,-0.22034722382202745,-9.807336593270302,12.565817166643683,0.0006872899504378439,0.0006042549200356007,0.005273019075393677,12.565817166643683,0.0622705078125,-0.2165995788574219,-9.804461517333985,12.570781166665256,0.0005549578927457333,-0.0005659203161485493,-0.0009942054748535156,12.565817166643683
2025-10-06 13:42:46.996606,0.05988232221454382,-0.2205064690858126,-9.807337762713432,12.69489216664806,-0.007790651977993548,1.500176265835762e-05,0.007667453885078431,12.69489216664806,0.056133270263671875,-0.22498214721679688,-9.805509338378906,12.68992816665559,0.0011869152076542377,-0.0010759517317637801,0.00038556335493922234,12.69489216664806
2025-10-06 13:42:47.134101,0.05942141087260098,-0.2201079447939992,-9.807352965474129,12.823968166660052,-0.003288131472654641,-0.00023387035354971886,0.008577865362167359,12.823968166660052,0.052241363525390626,-0.22468276977539064,-9.799821166992189,12.819004166667582,0.002060266211628914,0.000828471384011209,-0.0010204748250544071,12.823968166660052
2025-10-06 13:42:47.299845,0.059947747075930244,-0.2205004756897688,-9.807339516878129,12.992760166642256,-0.008155440576374531,-0.006577313616871834,0.00931344509124756,12.992760166642256,0.053738250732421874,-0.22767654418945313,-9.799821166992189,12.99772416666383,-0.0020248403307050467,-0.0006327328737825155,0.0003613200969994068,12.992760166642256
2025-10-06 13:42:47.430001,0.05962284745182842,-0.22033631511032584,-9.807342440485955,13.11190616665408,-0.007531181783415377,-0.002849530912935734,0.007822405099868774,13.11190616665408,0.053438873291015626,-0.2225871276855469,-9.797276458740235,13.116871166654164,-0.0017774638254195452,0.0005957386456429958,-0.0002593882381916046,13.11190616665408
2025-10-06 13:42:47.575618,0.0594214474176988,-0.2201571344956756,-9.807348872423173,13.270769166643731,-0.012868259847164155,0.002509752865880728,0.006480469107627869,13.270769166643731,0.04535568237304688,-0.21764739990234377,-9.79997085571289,13.275733166665304,-0.0013501523062586784,-0.000516649684868753,0.00045759882777929306,13.270769166643731
2025-10-06 13:42:47.748827,0.05931973327416927,-0.22021790899336338,-9.807347702980042,13.439560166647425,-0.010670908181928099,0.0013729993253946305,0.004384242296218872,13.439560166647425,0.05119354248046875,-0.22228775024414063,-9.802665252685548,13.434596166654956,0.0005934094078838825,0.003296880517154932,0.0003219619393348694,13.439560166647425
2025-10-06 13:42:47.938255,0.059008145201951266,-0.22004371678456666,-9.807355889081956,13.638137791655026,0.0008673522155731917,-0.00014840964227914811,4.9116611480712895e-05,13.638137791655026,0.06032455444335938,-0.22468276977539064,-9.801767120361328,13.633173791662557,0.0014016907662153244,-0.0006290280725806952,0.0023004738613963127,13.638137791655026
2025-10-06 13:42:48.067790,0.05950060409959406,-0.219668818898499,-9.807358812689781,13.767213791667018,-0.0048642256110906605,-0.0005232709832489491,0.004395352005958557,13.767213791667018,0.06077362060546875,-0.21644989013671875,-9.801617431640626,13.762249791645445,0.0012582279741764069,0.0036898357793688774,-0.0011213989928364754,13.767213791667018
2025-10-06 13:42:48.192482,0.05964684387668968,-0.21979462539777161,-9.807358812689781,13.886360791657353,0.00052804468665272,-0.002942264098674059,0.004091881513595581,13.886360791657353,0.05882766723632813,-0.22468276977539064,-9.802216186523438,13.891325791657437,0.0005677416920661926,-0.0021151003893464804,-0.002546000760048628,13.886360791657353
2025-10-06 13:42:48.356771,0.06005169503856451,-0.2194230165705085,-9.807362321019173,14.055151791661046,-0.011103487936779857,0.007164428886026144,0.0014039164781570435,14.055151791661046,0.05822891235351563,-0.2165995788574219,-9.802665252685548,14.050187791668577,-0.0016102073714137077,-0.0002586274640634656,-0.00115583511069417,14.055151791661046
2025-10-06 13:42:48.547933,0.06020523013081402,-0.21913383521139623,-9.807366998791695,14.233872791664908,0.0037118444731459024,-0.0007588589563965798,0.012336455583572388,14.233872791664908,0.06316864013671876,-0.22004241943359376,-9.796228637695313,14.238836791657377,0.0020204479806125164,-0.003838327480480075,-0.00039624422788619995,14.233872791664908
2025-10-06 13:42:48.674678,0.06076903876382858,-0.2191010542586446,-9.80736407518387,14.372876791661838,-0.004186706906184555,0.00369900343939662,0.0002087455987930298,14.372876791661838,0.05718109130859375,-0.2177970886230469,-9.807754669189453,14.377841791661922,-2.698507159948349e-06,0.00011823867680504918,0.001039987662807107,14.372876791661838
2025-10-06 13:42:48.817961,0.06056497550569475,-0.21928430965170265,-9.807362905740739,14.511881791666383,-0.001737299133092165,0.0025350238010287286,-0.0077276802062988285,14.511881791666383,0.058528289794921876,-0.2149530029296875,-9.81523910522461,14.516846791666467,-0.0004924805834889412,0.0008661399479024112,-0.0007160566747188568,14.511881791666383
2025-10-06 13:42:48.977903,0.06047819460276515,-0.21970903677865863,-9.807353550195694,14.680673416645732,-0.006739943870343268,0.00026537222787737847,0.01950748085975647,14.680673416645732,0.04924758911132813,-0.2245330810546875,-9.803114318847657,14.675708416645648,0.00011441903188824654,0.00047540676314383745,0.0014888073783367872,14.680673416645732
2025-10-06 13:42:49.142644,0.0606981367059052,-0.2197330651804805,-9.807352965474129,14.839535416656872,-0.002918281378224492,-0.0018062597326934339,-0.0023494112491607667,14.839535416656872,0.04819976806640625,-0.22079086303710938,-9.809850311279297,14.834571416664403,-0.000840366818010807,-0.0001584501878824085,0.0008264172356575727,14.839535416656872
2025-10-06 13:42:49.266412,0.06064468036405742,-0.21971978103742004,-9.807354719638825,14.958682416647207,-0.0022660655854269862,-0.008705261573195459,0.004088373184204102,14.958682416647207,0.05763015747070313,-0.22632934570312502,-9.802515563964844,14.96364641666878,-0.002568752272054553,0.00024345569545403123,-0.0015985840000212193,14.958682416647207
2025-10-06 13:42:49.418481,0.061205761819146574,-0.21991697838529944,-9.80734185576439,15.117544416658347,-0.005072505259886384,0.003616831786930561,0.0007870352268218994,15.117544416658347,0.05598358154296875,-0.21121078491210937,-9.804910583496094,15.112580416665878,0.0003080167807638645,0.0011935210786759853,-0.0001597241498529911,15.117544416658347
2025-10-06 13:42:49.579714,0.06105075578670949,-0.21972959339618683,-9.807348872423173,15.276407416647999,-0.010006902026943864,-0.004055044054985047,-0.002351750135421753,15.276407416647999,0.052989807128906254,-0.22438339233398438,-9.81239501953125,15.281371416669572,-0.002462287899106741,-0.0011151439975947142,0.0004461626522243023,15.276407416647999
2025-10-06 13:42:49.752133,0.06097086820285768,-0.22015187200158837,-9.807341271042825,15.445198416651692,-0.010376071468926967,0.0005585004575550557,0.00257979154586792,15.445198416651692,0.04939727783203125,-0.21225860595703125,-9.797875213623048,15.440234416659223,-0.00039594806730747223,-0.0003656312474049628,-0.0002681063488125801,15.445198416651692
2025-10-06 13:42:49.922607,0.06096872574649752,-0.22014311945065856,-9.807336593270302,15.61399104166776,-0.005134851196780801,0.003543613683432341,0.0176977676153183,15.61399104166776,0.055085449218750006,-0.2149530029296875,-9.78694793701172,15.618955041660229,0.0008284510113298893,-0.0019429789390414953,-0.0008050762116909027,15.61399104166776
2025-10-06 13:42:50.056228,0.06141559006646276,-0.22019863145425916,-9.807337762713432,15.75299504166469,0.002052436647936702,-0.0011910047382116319,0.010358927249908449,15.75299504166469,0.06301895141601563,-0.22064117431640626,-9.800270233154297,15.757960041664774,0.0004383460618555546,-0.001013827626593411,0.0007502797525376081,15.75299504166469
2025-10-06 13:42:50.201426,0.061755993948318065,-0.22078441282734276,-9.80731846690178,15.901929041661788,-0.012957484703511,0.0028376903012394907,0.004056798219680786,15.901929041661788,0.0556842041015625,-0.2173480224609375,-9.798773345947266,15.896964041661704,0.0018437216058373451,0.0017894638003781438,0.0005850973539054394,15.901929041661788
2025-10-06 13:42:50.362452,0.061835717079229656,-0.22142022443935278,-9.807306772470474,16.060791041643824,-0.005852135536260903,0.012155392896384001,0.011527200937271118,16.060791041643824,0.05598358154296875,-0.21465362548828126,-9.797575836181641,16.055827041651355,0.0011728573590517044,-1.5989062376320362e-05,0.0015537983272224665,16.060791041643824
2025-10-06 13:42:50.482084,0.061892211232334376,-0.2207294855453074,-9.80732197523117,16.179938041663263,-0.0026154778338968753,0.0009864435531198978,0.004956099987030029,16.179938041663263,0.05748046875,-0.21929397583007815,-9.801617431640626,16.184903041663347,0.0012205406092107296,-0.0003829561173915863,-0.0014446894638240337,16.179938041663263
2025-10-06 13:42:50.655961,0.06205208233091981,-0.220929405502975,-9.807317297458649,16.348730041645467,-0.008014445020817221,0.0038807422108948233,0.009889980554580688,16.348730041645467,0.05239105224609375,-0.21644989013671875,-9.797426147460937,16.35369404166704,0.0008349530398845673,0.0003789939219132066,0.00318931695073843,16.348730041645467
2025-10-06 13:42:50.808144,0.06202495673205704,-0.22087614102289083,-9.807319051623345,16.507592041656608,-0.01412455240264535,-0.0009625796042382718,0.0028557801246643067,16.507592041656608,0.04775070190429688,-0.209564208984375,-9.788744201660156,16.50262804166414,-0.0005009532906115055,-0.000375552597688511,0.0002474491484463215,16.507592041656608
2025-10-06 13:42:50.973116,0.06206359860487282,-0.22217303518205883,-9.807289230823518,16.676384583319305,-0.0050322005851194266,0.0011258265562355519,-0.001664702296257019,16.676384583319305,0.0580792236328125,-0.22183868408203125,-9.797426147460937,16.67141958331922,0.00028001749888062477,0.002075118012726307,-0.0011469307355582714,16.676384583319305
2025-10-06 13:42:51.098273,0.06256882544606925,-0.22245231281965971,-9.807276366949083,16.79553058333113,-0.01796159581281245,0.001960863769054413,0.003415358662605286,16.79553058333113,0.05358856201171875,-0.22617965698242187,-9.798324279785156,16.790566583309555,0.0013571693561971188,0.0003511778195388615,0.003802096238359809,16.79553058333113
2025-10-06 13:42:51.267834,0.06261361603159457,-0.22194879446178675,-9.807286891937256,16.95439358332078,-0.007827557958662511,0.002804562170058489,0.009863083362579347,16.95439358332078,0.053738250732421874,-0.21929397583007815,-9.797126770019531,16.95935758331325,0.0024023400619626045,-0.0017925223801285028,0.00019571464508771896,16.95439358332078
2025-10-06 13:42:51.440734,0.062301571145653725,-0.22199628481641412,-9.807291569709779,17.133113583317026,-0.010658953366801144,0.003151356875896454,0.005373591184616089,17.133113583317026,0.052989807128906254,-0.2177970886230469,-9.801916809082032,17.13807858331711,-0.0024719852954149246,-0.00012349302414804697,-0.00011286092922091484,17.133113583317026
2025-10-06 13:42:51.587156,0.06220741726923734,-0.22141682574525476,-9.80730501830578,17.282047583314124,-0.006373515310697258,0.0030209639668464664,0.007632955312728882,17.282047583314124,0.05763015747070313,-0.2177970886230469,-9.79997085571289,17.287011583335698,0.0011752084828913212,0.0003841563011519611,0.0006769516039639711,17.282047583314124
2025-10-06 13:42:51.723814,0.06110113320406527,-0.222150907125324,-9.80729507803917,17.411123583326116,-0.007811939497478306,0.0021084876917302608,0.006125543117523194,17.411123583326116,0.05882766723632813,-0.21869522094726562,-9.806557159423829,17.406158583326032,0.00027495622634887695,0.0006486973725259304,-4.2685773223638535e-05,17.411123583326116
2025-10-06 13:42:51.876050,0.06112491949461401,-0.2220699597336352,-9.807293908596039,17.569985041656764,-0.0030457049980759624,0.004572303369641304,0.007025429606437684,17.569985041656764,0.055384826660156254,-0.21869522094726562,-9.801617431640626,17.574949041649234,0.0006331149488687515,2.2167805582284927e-06,0.0009158682078123093,17.569985041656764
2025-10-06 13:42:52.039343,0.06071770203765482,-0.22218646550551058,-9.807296832203866,17.738776041660458,-0.006829753448255361,0.006335293706506491,0.00612788200378418,17.738776041660458,0.06271957397460938,-0.21764739990234377,-9.809850311279297,17.73381204166799,0.0006587333045899868,0.0006882175803184509,0.0004439004696905613,17.738776041660458
2025-10-06 13:42:52.210138,0.06016521324869246,-0.22257620070129633,-9.807292739152908,17.89763904165011,-0.003433174397796393,0.0023840377293527126,0.0005835521221160889,17.89763904165011,0.053887939453125006,-0.21824615478515627,-9.806407470703126,17.90260304164258,0.0011688615195453167,0.0018848894396796823,-9.129801765084267e-05,17.89763904165011
2025-10-06 13:42:52.397856,0.059921585354022686,-0.22303067553788425,-9.807279290556908,18.096217041660566,-0.006482730335555971,0.004634905122220517,-0.001670549511909485,18.096217041660566,0.058677978515625,-0.21929397583007815,-9.806557159423829,18.091253041668097,0.001938345842063427,-0.0006555469590239227,0.00027198297902941704,18.096217041660566
2025-10-06 13:42:52.568944,0.05986526935826987,-0.22338914640247823,-9.807273443341256,18.26500804166426,-0.008072976563125849,0.003945500124245882,0.004907568097114563,18.26500804166426,0.052690429687500005,-0.2177970886230469,-9.803114318847657,18.269973041664343,-0.0006871335208415985,0.0018998340237885714,0.001406004186719656,18.26500804166426
2025-10-06 13:42:52.696859,0.05985645742155612,-0.22360404985025525,-9.807267596125604,18.394084041647147,-0.0014778654836118221,-0.0015277678146958353,0.005501645207405091,18.394084041647147,0.056582336425781254,-0.22288650512695313,-9.796378326416017,18.389120041654678,0.00029090698808431625,-0.000579055049456656,0.0010630651377141476,18.394084041647147
2025-10-06 13:42:52.827386,0.05952783933375031,-0.22397834474220873,-9.807262333631517,18.523159583332017,-0.0062386547634378075,-0.0014528686366975308,0.007590855360031129,18.523159583332017,0.05433700561523438,-0.2231858825683594,-9.801018676757813,18.518195041659055,0.002695223316550255,0.0005272579146549106,-0.0003033694811165333,18.523159583332017
2025-10-06 13:42:52.951882,0.05926106925588102,-0.22423304580152037,-9.807258240580559,18.652235583314905,-0.008516597505658866,-0.0002999987080693245,-0.004388335347175598,18.652235583314905,0.05059478759765625,-0.21989273071289064,-9.81134719848633,18.64727058331482,0.00018388032913208008,-0.0015347693115472794,-0.0007934020832180977,18.652235583314905
2025-10-06 13:42:53.105607,0.0585783702833578,-0.22477199463173747,-9.807248885035515,18.801168583333492,-0.008282969263382256,0.005927121508866549,0.007129510045051575,18.801168583333492,0.0508941650390625,-0.22034179687500002,-9.80236587524414,18.806133583333576,0.002749187871813774,-0.0005342885851860046,-0.0021661794744431973,18.801168583333492
2025-10-06 13:42:53.291106,0.05848789375741035,-0.22442043079063298,-9.80725941002369,18.989817583322292,0.0012379103712737561,0.0061742577329278,0.0032463741302490236,18.989817583322292,0.06062393188476563,-0.21944366455078126,-9.79892303466797,18.984853583329823,0.0013744202442467213,0.0011800387874245644,0.0024153904523700476,18.989817583322292
2025-10-06 13:42:53.446594,0.05810423875227571,-0.2239688612893224,-9.80727285861969,19.148680583311943,0.0025197022687643766,0.004076130576431751,-0.0003332912921905518,19.148680583311943,0.06301895141601563,-0.21794677734375,-9.81134719848633,19.143716583319474,0.0016818610019981861,-0.000496090273372829,-0.0005315542221069336,19.148680583311943
2025-10-06 13:42:53.571267,0.05849837763234973,-0.22390022959560157,-9.8072693502903,19.267827583331382,-0.008053287891671063,-0.0004831444658339024,0.003856823444366455,19.267827583331382,0.05164260864257813,-0.22543121337890626,-9.801467742919922,19.27279158332385,0.0006951126269996166,-0.0005128586199134588,-0.0025848103687167168,19.267827583331382
2025-10-06 13:42:53.736138,0.05913251273799688,-0.22445206057280304,-9.807252978086472,19.42668958331342,0.0017907874519005418,0.0029127722047269347,0.002642941474914551,19.42668958331342,0.053887939453125006,-0.2273771667480469,-9.81239501953125,19.42172558332095,0.002070097252726555,-0.0011196143459528685,-0.0007151360623538494,19.42668958331342
2025-10-06 13:42:53.985909,0.05998145536053926,-0.22474973866716028,-9.807243622541428,19.674913041642867,-0.0005550241051241755,0.0041085460782051084,0.008469107151031495,19.674913041642867,0.052241363525390626,-0.21869522094726562,-9.8052099609375,19.669949041650398,-0.0001829066313803196,-0.0007887505344115198,-0.0006590066477656364,19.674913041642867
2025-10-06 13:42:54.120973,0.060312896557152273,-0.22441699555143715,-9.807247715592386,19.813918041647412,-0.009418736086227,0.0046739718317985535,-0.002153529524803162,19.813918041647412,0.06301895141601563,-0.214354248046875,-9.804311828613281,19.808953041647328,0.00030338577926158905,-0.0012380912667140365,0.00105100660584867,19.813918041647412
2025-10-06 13:42:54.291217,0.06040161891840399,-0.22429807780310512,-9.807252978086472,19.972780041658552,-0.0027714386070147156,0.004854358434677125,0.008925189971923828,19.972780041658552,0.05792953491210938,-0.22109024047851564,-9.796528015136719,19.977745041658636,-0.0021000585984438658,0.00128329754807055,-0.0015527852810919285,19.972780041658552
2025-10-06 13:42:54.427114,0.06101435686927289,-0.22336230402812363,-9.807266426682473,20.111785041663097,0.0017052079690620303,-0.0004223334230482578,0.0013086068630218507,20.111785041663097,0.0628692626953125,-0.22408401489257815,-9.8052099609375,20.116749041655567,-0.001499356934800744,0.0007145042764022946,0.0015690149739384651,20.111785041663097
2025-10-06 13:42:54.547186,0.06130820229649544,-0.22379943821579218,-9.807254147529603,20.240861041645985,-0.005923384772613645,0.004954565092921258,-0.0007987296581268311,20.240861041645985,0.05598358154296875,-0.2197430419921875,-9.807155914306641,20.24582504166756,-0.0010728179477155209,0.0002584183239378035,-0.0007671625353395939,20.240861041645985
2025-10-06 13:42:54.673083,0.061179257486946886,-0.22384464450180533,-9.807255316972734,20.369936041650362,-0.002201901529915631,0.0023053195886313916,0.007733527421951295,20.369936041650362,0.059725799560546876,-0.22483245849609376,-9.801916809082032,20.364972041657893,-0.00011354684829711914,0.0008807263802736998,-0.0009317276999354362,20.369936041650362
2025-10-06 13:42:54.799211,0.06164092257153243,-0.22370409205555916,-9.807256486415863,20.499012041662354,-0.005058577009476721,-0.0005296298302710057,-0.0009484183788299561,20.499012041662354,0.06601272583007813,-0.22378463745117189,-9.8052099609375,20.494048041669885,0.0009876941330730915,0.0022463726345449686,0.0019474218133836985,20.499012041662354
2025-10-06 13:42:54.931835,0.06152460409328342,-0.2235224081017077,-9.80726057946682,20.628088041645242,0.0008955878717824817,0.007820979841053486,-0.0028891092538833618,20.628088041645242,0.06182144165039063,-0.21600082397460937,-9.812544708251954,20.633052041666815,0.0003985888324677944,-0.00025358895072713494,-0.00046544335782527924,20.628088041645242
2025-10-06 13:42:55.054474,0.061709234495647254,-0.2234960590861738,-9.807258240580559,20.74723504166468,-0.010815078592859208,0.003902724087238312,0.015522018671035767,20.74723504166468,0.05254074096679688,-0.2185455322265625,-9.794282684326172,20.75219904165715,-0.0011456869542598724,0.0004341023741289973,0.000770162558183074,20.74723504166468
2025-10-06 13:42:55.171466,0.06229258105158806,-0.22329882519319655,-9.807258825302124,20.866382041655015,-0.0058599424827843905,0.007148349042981864,0.009684743285179138,20.866382041655015,0.05433700561523438,-0.21390518188476565,-9.79997085571289,20.871346041647485,-0.002901771804317832,0.002083997242152691,-0.0009815702214837074,20.866382041655015
2025-10-06 13:42:55.331527,0.06251022081356496,-0.22379638670012356,-9.80724713087082,21.025244041666156,-0.006227266397327185,-0.0008863465301692487,0.0021874433755874633,21.025244041666156,0.05598358154296875,-0.22573059082031252,-9.807305603027345,21.03020904166624,0.003736286424100399,7.73254141677171e-05,0.0015493719838559628,21.025244041666156
2025-10-06 13:42:55.459020,0.06289359259419143,-0.2233144664950669,-9.807254147529603,21.154320041649044,-0.013496328466571868,-0.003164513111114502,-0.000647871494293213,21.154320041649044,0.05553451538085938,-0.21929397583007815,-9.804012451171875,21.149356041656574,0.0005566473118960857,-0.0008393618045374751,0.00126119633205235,21.154320041649044
2025-10-06 13:42:55.586364,0.06339294937904924,-0.22354548633098603,-9.807245376706124,21.283396041661035,-0.0166900776559487,0.009191293101757765,0.0032352644205093386,21.283396041661035,0.052690429687500005,-0.22049148559570314,-9.811796264648438,21.27843104166095,-0.0009665312245488167,-0.0008153145899996161,-0.0005847448483109474,21.283396041661035
2025-10-06 13:42:55.713280,0.06305855716578662,-0.22387022607028487,-9.807243037819863,21.40254304165137,-0.004081192072480917,0.01041409207507968,-0.003805367946624756,21.40254304165137,0.05987548828125,-0.2137554931640625,-9.809850311279297,21.40750704164384,0.0015309271402657032,-0.0005830943118780851,0.0010914495214819908,21.40254304165137
2025-10-06 13:42:55.837012,0.06308256729505957,-0.22406283700838686,-9.807240114212037,21.531618791661458,-0.013236209596507252,0.0034216078743338585,-0.004558489322662354,21.531618791661458,0.051043853759765626,-0.22168899536132813,-9.80850311279297,21.536582791653927,-0.0004829615354537964,0.0004539592482615262,-0.0010875738225877285,21.531618791661458
2025-10-06 13:42:55.962820,0.0636561197647825,-0.22384217770770193,-9.807236605882645,21.660693791665835,-0.012462595556862653,-0.0018883400224149229,0.012657467722892762,21.660693791665835,0.047601013183593756,-0.22183868408203125,-9.804910583496094,21.655729791644262,-0.001797794597223401,-0.0007872571586631238,-0.00027023395523428917,21.660693791665835
2025-10-06 13:42:56.096493,0.06359645989257842,-0.2238466910272837,-9.807237775325776,21.789769791648723,-0.0046191130718216305,0.007097478266805411,0.01894439399242401,21.789769791648723,0.05912704467773438,-0.21794677734375,-9.791588287353516,21.794734791648807,-0.0012803834397345781,-0.00031860743183642626,0.00030054477974772453,21.789769791648723
2025-10-06 13:42:56.225719,0.0634057858446613,-0.2240805613808334,-9.80723602116108,21.918845791660715,-0.008919082372449339,-0.0010512928292155267,-0.007105536460876465,21.918845791660715,0.050295410156250005,-0.22483245849609376,-9.811646575927735,21.923809791653184,-0.002085333224385977,-0.0004502428637351841,0.0009984856005758047,21.918845791660715
2025-10-06 13:42:56.352590,0.06310272648464889,-0.22374209895730018,-9.807244791984559,22.047921791643603,-0.009514169041067362,0.0060947173275053505,-0.00020991504192352295,22.047921791643603,0.055085449218750006,-0.21809646606445313,-9.812245330810548,22.04295679164352,0.0017103366553783417,0.000816606217995286,-0.0018755234777927399,22.047921791643603
2025-10-06 13:42:56.497971,0.06355578063055874,-0.22315242553129794,-9.807255901694298,22.186925791669637,-0.0074225103668868544,0.002511251214891672,0.012225358486175538,22.186925791669637,0.056582336425781254,-0.21989273071289064,-9.795929260253907,22.19189079166972,-0.0021811090409755707,0.0004359194717835635,-0.003250273410230875,22.186925791669637
2025-10-06 13:42:56.632338,0.06293379676993936,-0.22278624365106225,-9.807267011404038,22.325930791645078,-0.004405516111291945,0.002893531210720539,0.002207908630371094,22.325930791645078,0.05763015747070313,-0.21824615478515627,-9.804910583496094,22.330895791645162,0.0015870737843215466,0.002779497765004635,-0.00011547654867172241,22.325930791645078
2025-10-06 13:42:56.779125,0.06288766315206885,-0.2228103816881776,-9.807268765568734,22.464935791649623,-0.009299092004075646,0.004863586071878672,0.00834514617919922,22.464935791649623,0.053738250732421874,-0.21944366455078126,-9.800569610595703,22.469899791642092,0.0004935567267239094,0.000639301841147244,6.550922989845276e-06,22.464935791649623
2025-10-06 13:42:56.929128,0.06284249341115355,-0.2228601378388703,-9.807267596125604,22.62379816666362,-0.003266373435035348,-0.003918274026364088,0.0008595407009124756,22.62379816666362,0.057779846191406255,-0.22004241943359376,-9.800419921875001,22.618834166642046,0.002650890499353409,0.0007923815865069628,0.0012985155917704105,22.62379816666362
2025-10-06 13:42:57.058665,0.06267031118273736,-0.22303427523002028,-9.807266426682473,22.752874166646507,-0.010728311394341291,0.0010458658821880817,0.006695061922073364,22.752874166646507,0.05059478759765625,-0.22094055175781252,-9.801467742919922,22.75783916664659,-0.0017576792743057013,-0.0010117663769051433,0.0005658678710460663,22.752874166646507
2025-10-06 13:42:57.186997,0.06251875866204501,-0.22255220884457233,-9.807276951670648,22.8819501666585,-0.009079876234754921,0.006401659604161978,-0.0007776796817779542,22.8819501666585,0.0568817138671875,-0.214354248046875,-9.799521789550782,22.876985166658415,-0.0015397700481116772,3.537588054314256e-05,0.0012818376999348402,22.8819501666585
2025-10-06 13:42:57.314313,0.06172990074846894,-0.22251052916049957,-9.80728162944317,23.01102616667049,-0.011284811007790267,0.002767487168312073,0.003718829154968262,23.01102616667049,0.052989807128906254,-0.21794677734375,-9.8052099609375,23.01599016666296,-0.000842289999127388,-0.0020851562730968,0.0022498981561511755,23.01102616667049
2025-10-06 13:42:57.468035,0.061320933694951237,-0.22225853243842722,-9.807291569709779,23.15003016666742,-0.0030920122051611544,0.003862670660018921,0.013756159543991089,23.15003016666742,0.05703140258789063,-0.21824615478515627,-9.795779571533204,23.154995166667504,-0.0005511464551091194,-0.00150085031054914,-0.003199134487658739,23.15003016666742
2025-10-06 13:42:57.611621,0.0615719848126173,-0.2226029882580042,-9.807279875278473,23.29896416666452,-0.007384677054360509,0.004955588355660439,0.014644936323165894,23.29896416666452,0.05358856201171875,-0.21674926757812502,-9.795330505371094,23.294000166642945,0.0007145488634705544,0.00030048040207475424,0.0014370391145348549,23.29896416666452
2025-10-06 13:42:57.738896,0.06125126503407956,-0.2229028042405844,-9.807275197505952,23.437969166669063,-0.010207420410588385,0.006303261928260326,0.014490569829940797,23.437969166669063,0.05059478759765625,-0.2213896179199219,-9.800569610595703,23.43300416666898,-0.001570696709677577,-0.00171147589571774,0.00010194443166255951,23.437969166669063
2025-10-06 13:42:57.889478,0.06080273334402591,-0.22287448178976776,-9.8072827988863,23.57697433332214,0.0008690332900732756,0.0011854316107928753,-0.003468568325042725,23.57697433332214,0.058677978515625,-0.22019210815429688,-9.80955093383789,23.58193833331461,0.0008339122869074345,-0.0025648849550634623,-0.0007218760438263416,23.57697433332214
2025-10-06 13:42:58.022770,0.06079567100387067,-0.22230883676558735,-9.807292739152908,23.71597833331907,-0.009302751081995667,0.00526019174605608,0.010465346574783325,23.71597833331907,0.05074447631835938,-0.21600082397460937,-9.79368392944336,23.720943333319155,-0.0006356053054332733,-0.00031205068808048964,-0.0006322618573904037,23.71597833331907
2025-10-06 13:42:58.138498,0.06048581882379949,-0.2221706597507,-9.807296832203866,23.835125333309406,-0.001957529028877616,0.003774834517389536,0.004781852960586548,23.835125333309406,0.05643264770507813,-0.22004241943359376,-9.80131805419922,23.84009033330949,-0.0007899487391114235,-0.00102896464522928,0.0008887581061571836,23.835125333309406
2025-10-06 13:42:58.270538,0.06057935600169003,-0.22180846128612758,-9.807305603027345,23.964201333321398,-0.008188303755596281,-0.00017991151660680773,0.009131011962890626,23.964201333321398,0.051043853759765626,-0.22243743896484375,-9.80086898803711,23.969165333313867,0.0004089297726750374,-0.00010168791050091386,0.002391612157225609,23.964201333321398
2025-10-06 13:42:58.393160,0.06036936330143362,-0.22143608501181009,-9.807313204407693,24.09327733333339,-0.0061820555431768304,0.006183722913265228,0.0015062427520751954,24.09327733333339,0.05179229736328125,-0.2219883728027344,-9.801916809082032,24.088312333333306,-8.56923870742321e-05,0.00045505957677960396,0.002166190417483449,24.09327733333339
2025-10-06 13:42:58.515112,0.060081684859469534,-0.22167158162221315,-9.807311450242997,24.212424333323725,9.318086318671704e-05,0.00447324788197875,0.005843707323074341,24.212424333323725,0.05942642211914063,-0.21600082397460937,-9.801617431640626,24.217388333316194,0.0015619653277099133,-0.0005306141101755202,0.00010637659579515457,24.212424333323725
2025-10-06 13:42:58.652228,0.060253524477593606,-0.22183862926438452,-9.807304433584214,24.351428333320655,-0.004120267918333411,0.004939727783203125,0.004192453622817993,24.351428333320655,0.051043853759765626,-0.2231858825683594,-9.804611206054688,24.346464333328186,0.0012870710343122482,-0.0014053222257643938,0.00045007746666669846,24.351428333320655
2025-10-06 13:42:58.805756,0.05991614013444633,-0.2220989034511149,-9.807303264141083,24.500362333317753,-0.003333803708665073,0.008642806001007558,0.008978984355926515,24.500362333317753,0.056133270263671875,-0.21465362548828126,-9.792187042236328,24.495398333325284,-0.0016989426221698523,-0.00037430282100103796,-0.0005560717545449734,24.500362333317753
2025-10-06 13:42:58.946885,0.05943946415092796,-0.2215152051486075,-9.807317882180214,24.639366958319442,-0.005701222554780543,-0.00017375366762280466,0.014533254504203797,24.639366958319442,0.054636383056640626,-0.2225871276855469,-9.792636108398439,24.64433095831191,-5.947751924395561e-05,-0.001020768890157342,0.0010991133749485016,24.639366958319442
2025-10-06 13:42:59.077542,0.059716110541485255,-0.22170184096321466,-9.807313789129259,24.778370958316373,-0.008372870204038919,0.005850687436759473,0.0055454993247985845,24.778370958316373,0.05957611083984375,-0.21959335327148438,-9.805060272216798,24.773406958323903,-0.00024529313668608665,0.0003959891037084162,-0.002459285780787468,24.778370958316373
2025-10-06 13:42:59.203753,0.0594636661419645,-0.22149578142911197,-9.807320805788041,24.89751795833581,-0.005426028831861914,-0.0019894968532025814,0.001211543083190918,24.89751795833581,0.053438873291015626,-0.22528152465820314,-9.80955093383789,24.902482958335895,-0.0007946291007101536,-0.0004048219998367131,0.0029458266217261553,24.89751795833581
2025-10-06 13:42:59.333884,0.05937402558512986,-0.22182742819190027,-9.807310865521432,25.0265939583187,-0.000995433647185564,0.0004378468170762062,0.0038983386754989626,25.0265939583187,0.05957611083984375,-0.2273771667480469,-9.807155914306641,25.02162995832623,-7.052719593048096e-05,2.8396083507686853e-05,0.00043361331336200237,25.0265939583187
2025-10-06 13:42:59.457397,0.05939748296979815,-0.22219998719170692,-9.80730618774891,25.15566995833069,2.8961990028619767e-05,0.0018581172265112402,-0.0009004712104797364,25.15566995833069,0.05718109130859375,-0.21944366455078126,-9.801617431640626,25.150705958309118,0.001238974742591381,0.0018648860277608037,-0.00023465417325496674,25.15566995833069
2025-10-06 13:42:59.575262,0.059055306650698185,-0.22236250324174764,-9.807302679419518,25.274816958321026,-0.00411954615265131,-0.0026196439750492575,0.005235596895217896,25.274816958321026,0.05239105224609375,-0.22498214721679688,-9.803413696289063,25.26985195832094,0.0008262372575700283,-0.0007598466472700238,0.001488296315073967,25.274816958321026
2025-10-06 13:42:59.701036,0.05896263741888106,-0.2222498529776931,-9.807304433584214,25.39396395831136,-0.006571589740924538,-0.0007863225974142552,0.009130427241325378,25.39396395831136,0.050295410156250005,-0.2245330810546875,-9.800120544433595,25.398927958332933,0.0009228368289768696,0.0008032346377149224,3.717327490448952e-05,25.39396395831136
2025-10-06 13:42:59.821101,0.05919529721606523,-0.22255177030339837,-9.807297416925431,25.5131109583308,-0.007402999852783978,-0.0003347348235547543,0.010020958185195923,25.5131109583308,0.05059478759765625,-0.22109024047851564,-9.797875213623048,25.518074958323268,0.00039839139208197594,0.000906547880731523,-0.002542103175073862,25.5131109583308
2025-10-06 13:42:59.946676,0.05922891870606691,-0.22216340554878117,-9.807307941913605,25.6421866666642,-0.0036943896207958463,0.002120931297540665,0.001945953369140625,25.6421866666642,0.05703140258789063,-0.21944366455078126,-9.804760894775391,25.64715066665667,9.108707308769226e-05,0.0011690487153828144,-0.0014000223018229008,25.6421866666642
2025-10-06 13:43:00.071858,0.058799084401689475,-0.22275594776496294,-9.807293908596039,25.77126166666858,-0.008952744975686074,0.01408990764990449,0.014359007477760316,25.77126166666858,0.0484991455078125,-0.21959335327148438,-9.808353424072266,25.766297666647006,0.00035738106817007065,0.0012858569389209151,0.0002807062119245529,25.77126166666858
2025-10-06 13:43:00.198050,0.05856550640892238,-0.2230273499339819,-9.807291569709779,25.890408666658914,0.0013099910086020827,0.0037333558313548568,0.003577326536178589,25.890408666658914,0.05942642211914063,-0.22168899536132813,-9.802066497802734,25.895373666658998,-0.0005690855905413628,-0.0007895767339505255,0.001263902522623539,25.890408666658914
2025-10-06 13:43:00.315845,0.05823483265936375,-0.2230579747259617,-9.807293908596039,26.00955566664925,-0.004346879501827061,-0.005067690443247557,0.004027562141418457,26.00955566664925,0.053438873291015626,-0.22692810058593751,-9.799821166992189,26.014520666649332,-2.116430550813675e-05,-0.0012356163933873177,0.001137798186391592,26.00955566664925
2025-10-06 13:43:00.439613,0.058393264794722205,-0.22305631192401051,-9.807291569709779,26.13863166666124,-0.005852514691650868,-0.004769939258694649,0.013756159543991089,26.13863166666124,0.057330780029296875,-0.21944366455078126,-9.805060272216798,26.13366766666877,0.0012817499227821827,-0.0010037781903520226,-0.00044039497151970863,26.13863166666124
2025-10-06 13:43:00.563857,0.05801493623759598,-0.22281270230188968,-9.807299755811691,26.257778666651575,-0.0035282327653840184,0.0018721322715282442,0.007327730655670167,26.257778666651575,0.0461041259765625,-0.21330642700195312,-9.803413696289063,26.252814666659106,-0.00016336515545845032,-0.00018758329679258168,-0.00060990359634161,26.257778666651575
2025-10-06 13:43:00.695011,0.05760322373360396,-0.22255639325827362,-9.80730735719204,26.386854666663567,-0.0058109172340482474,0.0019151823967695238,-0.002543538808822632,26.386854666663567,0.05433700561523438,-0.21899459838867188,-9.811496887207031,26.391818666656036,-0.00014067068696022034,-0.00019984605023637414,-0.00010500987991690636,26.386854666663567
2025-10-06 13:43:00.821415,0.05745480952318758,-0.22217500861734152,-9.807316128015518,26.515930666646454,-0.00027371821459382773,0.0010847864113748074,0.0037527430057525636,26.515930666646454,0.057779846191406255,-0.22288650512695313,-9.801617431640626,26.520894666668028,-0.00018677255138754845,-0.0003823792503681034,-0.0004274267703294754,26.515930666646454
2025-10-06 13:43:00.944290,0.05724060956854374,-0.2214987050369382,-9.807334839105607,26.63507804166875,0.004580845786258578,-0.0015375436283648015,0.0004759633541107178,26.63507804166875,0.061372375488281256,-0.22228775024414063,-9.808652801513672,26.640042041661218,-0.003274926682934165,0.0006548853125423193,0.002472663763910532,26.63507804166875
2025-10-06 13:43:01.076249,0.057557816449552775,-0.2208948521129787,-9.807343609929084,26.77408204166568,-0.005466150781139731,-0.0021413234621286393,-0.002805494070053101,26.77408204166568,0.05643264770507813,-0.21959335327148438,-9.805808715820312,26.769118041644106,-0.0025482377968728542,-0.0007447247044183314,-0.0010238466784358025,26.77408204166568
2025-10-06 13:43:01.201849,0.05733180329203606,-0.22116513965651394,-9.80734068632126,26.903158041648567,-0.0031444818293675783,-0.0030685822293162347,0.014703408479690552,26.903158041648567,0.05164260864257813,-0.22662872314453125,-9.80131805419922,26.898194041656097,-0.0034752183128148317,-0.000820856774225831,0.0022698857355862856,26.903158041648567
2025-10-06 13:43:01.334036,0.05703771118540317,-0.2215679579973221,-9.807332500219346,27.03223404166056,-0.0062932348670437935,0.010656550526618958,0.009307597875595094,27.03223404166056,0.05239105224609375,-0.2165995788574219,-9.789342956542969,27.02727004166809,-0.0004076799377799034,0.00014588574413210154,-0.0002501802518963814,27.03223404166056
2025-10-06 13:43:01.453476,0.05709059194196016,-0.22134686015546323,-9.807334254384042,27.151381041650893,0.002186132320202887,0.0053460727259516715,0.015748305916786196,27.151381041650893,0.056133270263671875,-0.2171983337402344,-9.801916809082032,27.146417041658424,0.0003488580696284771,0.0014898184454068542,-0.0014733881689608097,27.151381041650893
2025-10-06 13:43:01.600736,0.0570892352052033,-0.22136900648474694,-9.807333669662476,27.290386041655438,0.00398374913726002,-0.00211619870737195,0.0019763588905334474,27.290386041655438,0.054636383056640626,-0.22483245849609376,-9.806856536865235,27.285421041655354,-0.00013724062591791153,0.00032875651959329844,-0.0014910981990396976,27.290386041655438
2025-10-06 13:43:01.720890,0.057082191137596966,-0.2215330026112497,-9.807333084940911,27.41946204166743,9.890017099678516e-05,0.0013408944569528103,0.0030206716060638427,27.41946204166743,0.05403762817382813,-0.22468276977539064,-9.80131805419922,27.414497041667346,0.001921256072819233,0.0015176384476944804,-0.0014362679794430733,27.41946204166743
2025-10-06 13:43:01.865748,0.05668882427271456,-0.22187024077400566,-9.80732840716839,27.558466208312893,-0.008788429079577328,0.003923426885157824,0.004511711597442627,27.558466208312893,0.0622705078125,-0.22498214721679688,-9.802066497802734,27.553502208320424,4.607951268553734e-05,0.0008833491010591388,0.0004018049221485853,27.558466208312893
2025-10-06 13:43:02.003550,0.05726429079193622,-0.22211593346670272,-9.807320805788041,27.697471208317438,0.0005155691038817167,0.0016243930533528328,0.011089829206466676,27.697471208317438,0.056282958984375006,-0.2213896179199219,-9.79413299560547,27.702436208317522,0.0018726461566984653,-0.0005726125091314316,-0.00033539021387696266,27.697471208317438
2025-10-06 13:43:02.120510,0.057520933309569956,-0.22249980317428708,-9.8073096960783,27.816618208336877,-0.00962052898015827,0.0026070176437497142,0.0014992260932922363,27.816618208336877,0.04879852294921875,-0.21884490966796877,-9.801767120361328,27.821582208329346,0.0008586873300373554,-0.0001998981460928917,0.0010712484363466501,27.816618208336877
2025-10-06 13:43:02.269384,0.058286237907595934,-0.22166737893596292,-9.80732197523117,27.965552208333975,-0.006943011274561287,0.0023734213784337046,0.007651081681251526,27.965552208333975,0.04879852294921875,-0.21704864501953125,-9.797126770019531,27.96058720833389,-0.000771678052842617,-0.0011399637442082167,0.0006123159546405077,27.965552208333975
2025-10-06 13:43:02.418666,0.058445012653246524,-0.22163450662046671,-9.807323144674301,28.104556208330905,-0.010245235450565816,-0.0014017054997384549,0.0007648158073425294,28.104556208330905,0.0532891845703125,-0.22049148559570314,-9.802964630126954,28.099592208309332,0.0015306398272514343,-0.0014122326392680407,-0.0004882956854999065,28.104556208330905
2025-10-06 13:43:02.565336,0.05869043582584709,-0.2217655390687287,-9.80731846690178,28.253490208328003,-0.0010602692188695073,-0.0003725407272577286,0.0027060914039611817,28.253490208328003,0.05643264770507813,-0.22049148559570314,-9.806557159423829,28.258455208328087,0.0008323020301759243,-0.0013022086350247264,-0.0004753321409225464,28.253490208328003
2025-10-06 13:43:02.700555,0.05901465936563909,-0.22248715857043863,-9.807300340533256,28.392495208332548,-0.003480134848505259,0.00454036295413971,0.011819561719894409,28.392495208332548,0.05433700561523438,-0.21630020141601564,-9.79278579711914,28.397459208325017,-0.0018869168125092983,-0.0008088730974122882,0.000184670090675354,28.392495208332548
2025-10-06 13:43:02.836436,0.059389283163473014,-0.22305859599262476,-9.807284553050996,28.531499791657552,-0.005351654989644885,0.0010702049173414707,0.007463386058807374,28.531499791657552,0.05313949584960938,-0.2219883728027344,-9.801018676757813,28.53646379165002,-0.0011558698024600744,0.0009464584290981293,-0.00036517344415187836,28.531499791657552
2025-10-06 13:43:02.987759,0.05924972200300545,-0.22330273551866414,-9.807282214164735,28.680432791647036,-0.0019189282692968846,-0.0009310411848127843,0.0110512375831604,28.680432791647036,0.05792953491210938,-0.22303619384765627,-9.796677703857423,28.68539779164712,-0.0010651196353137493,-0.00010003705392591655,-0.0009396891109645367,28.680432791647036
2025-10-06 13:43:03.118950,0.059253170946612956,-0.22388853516429663,-9.807267596125604,28.809508791659027,-0.011502459906041623,0.005343002937734128,0.0034030795097351077,28.809508791659027,0.04805007934570313,-0.21824615478515627,-9.802515563964844,28.81447379165911,0.0008517373353242874,0.0006827552570030093,0.0016328589990735054,28.809508791659027
2025-10-06 13:43:03.258383,0.058864760510623455,-0.22414425948634745,-9.80726291835308,28.958442791656125,-0.0030308676883578304,6.024459376931191e-05,0.004297703504562378,28.958442791656125,0.04805007934570313,-0.2219883728027344,-9.807006225585939,28.95347779165604,0.001017244067043066,-0.0010771392844617367,-0.0003878730349242687,28.958442791656125
2025-10-06 13:43:03.403440,0.05927866572048515,-0.22448179000988605,-9.80725063920021,29.09744779166067,-0.007187000052072109,0.00997788978740573,0.0011443001031875611,29.09744779166067,0.04924758911132813,-0.21525238037109376,-9.808203735351563,29.10241179165314,0.0012090536765754223,0.001396811450831592,0.0010460908524692059,29.09744779166067
2025-10-06 13:43:03.565187,0.05886147145181895,-0.22483238540589812,-9.807248885035515,29.256309791642707,-0.010062939366325737,0.008981231879442931,0.009371917247772218,29.256309791642707,0.058677978515625,-0.21944366455078126,-9.79997085571289,29.251345791650238,0.001835079863667488,-0.0002790181606542319,0.0018471658695489168,29.256309791642707
2025-10-06 13:43:03.709183,0.05834113321267069,-0.22540301883593203,-9.807236605882645,29.40524379166891,-0.005501014804467559,0.0047618445195257665,0.010259524583816529,29.40524379166891,0.0544866943359375,-0.22123992919921875,-9.795480194091798,29.410207791661378,0.0006191967986524105,-0.00023421645164489746,-0.0014225062914192677,29.40524379166891
2025-10-06 13:43:03.865308,0.057866024100221694,-0.22541979303583504,-9.807238360047341,29.5442489166453,-0.0017327629728242757,0.008221495840698482,0.0020295685529708864,29.5442489166453,0.053438873291015626,-0.2165995788574219,-9.80416213989258,29.549212916666875,1.6372185200452805e-05,0.000966779247391969,0.0017604187596589327,29.5442489166453
2025-10-06 13:43:03.992722,0.05798449417110533,-0.22573824701830747,-9.807228419780731,29.69318191666389,-0.00709034740459174,0.006294673830270768,0.013996480107307434,29.69318191666389,0.060923309326171876,-0.2213896179199219,-9.789342956542969,29.688217916642316,0.00030970294028520584,-0.002080352744087577,0.0023669982329010963,29.69318191666389
2025-10-06 13:43:04.133070,0.05789557994809002,-0.2254808964394033,-9.807236605882645,29.832186916668434,-0.004157338351942599,0.005288806557655335,0.008165051937103271,29.832186916668434,0.05074447631835938,-0.22528152465820314,-9.801916809082032,29.82722291664686,-0.00046717608347535133,-0.0010610510362312198,-0.0023488043807446957,29.832186916668434
2025-10-06 13:43:04.250627,0.058390501071698964,-0.2245554466545582,-9.807255901694298,29.95133391665877,-0.003005678979679942,0.004213668052107096,-0.003791919350624085,29.95133391665877,0.059725799560546876,-0.21450393676757815,-9.794282684326172,29.9463699166663,0.001072827260941267,0.002794422209262848,0.0013567744754254818,29.95133391665877
2025-10-06 13:43:04.368593,0.058485184852033856,-0.224738117326051,-9.807251808643342,30.070480916649103,-0.006393510047346354,0.006042914651334286,0.003987801074981689,30.070480916649103,0.05239105224609375,-0.22423370361328127,-9.794282684326172,30.065516916656634,0.0037034093402326107,0.0019547389820218086,0.0004332377575337887,30.070480916649103
2025-10-06 13:43:04.492731,0.058169786953367296,-0.22471260884776711,-9.807253562808038,30.18962791666854,-0.0003899407619610429,0.0004789235070347786,0.003840451240539551,30.18962791666854,0.05792953491210938,-0.2245330810546875,-9.804611206054688,30.194592916668626,-0.0022800620645284653,0.0017298643942922354,-5.5402982980012894e-05,30.18962791666854
2025-10-06 13:43:04.624943,0.05750059596262873,-0.22419909540563823,-9.807268765568734,30.308774916658876,-0.0009182686731219293,0.001013231109827757,-0.003928159475326538,30.308774916658876,0.05763015747070313,-0.22303619384765627,-9.809700622558594,30.313738916651346,-0.0012400937266647816,-0.0001900119532365352,-0.0033952477388083935,30.308774916658876
2025-10-06 13:43:04.764456,0.05714604455977679,-0.22351573862135413,-9.807285722494125,30.457708916655974,-0.0035574871161952615,0.0037727149017155173,-0.003311862945556641,30.457708916655974,0.059725799560546876,-0.2213896179199219,-9.794881439208984,30.45274391665589,0.0006072330288589001,9.299075463786721e-05,0.0026973041240125895,30.457708916655974
2025-10-06 13:43:04.904535,0.05656082049943507,-0.22377793142572047,-9.807284553050996,30.596712916652905,-0.0037207020912319424,0.0011908037401735783,0.008960273265838623,30.596712916652905,0.05553451538085938,-0.21884490966796877,-9.809700622558594,30.591748916660435,-0.0017643431201577187,0.0009412895306013525,-0.0004471605643630028,30.596712916652905
2025-10-06 13:43:05.069883,0.05594001978635788,-0.223813489805907,-9.80728396832943,30.765504916664213,0.008426111843436957,-0.00012076327577233315,0.006717866063117982,30.765504916664213,0.056282958984375006,-0.22019210815429688,-9.797875213623048,30.76054091664264,-0.0003010430373251438,-0.000734819914214313,0.0014167234767228365,30.765504916664213
2025-10-06 13:43:05.194014,0.05554280654992909,-0.22359005307778718,-9.807292154431343,30.884651916654548,0.004632040900178254,-0.0015417097695171833,0.0062758165597915656,30.884651916654548,0.06077362060546875,-0.22558090209960938,-9.799072723388672,30.889615916647017,-0.0006313356570899487,-0.00011786262621171772,0.001038569724187255,30.884651916654548
2025-10-06 13:43:05.315881,0.0553409634064883,-0.2234977767057717,-9.807296832203866,31.01372791666654,0.0015407413244247438,0.005251640193164349,0.008973721861839295,31.01372791666654,0.0520916748046875,-0.22767654418945313,-9.804461517333985,31.008762916666456,-0.0023816556204110384,0.0007303377497009933,0.0007846232037991285,31.01372791666654
2025-10-06 13:43:05.476621,0.05550997077953071,-0.22319019488990308,-9.807305603027345,31.172589916648576,-0.003867357568815351,0.0026986910216510295,0.0016454064846038818,31.172589916648576,0.05523513793945313,-0.21615051269531252,-9.799222412109376,31.167625916656107,-0.0004549040459096432,-0.001155818928964436,0.0008251341059803963,31.172589916648576
2025-10-06 13:43:05.601438,0.05539233667775989,-0.22247553722932936,-9.80731963634491,31.301665916660568,0.00044155157636851074,0.008869769331067801,0.011391545534133912,31.301665916660568,0.052690429687500005,-0.21764739990234377,-9.796228637695313,31.2967019166681,0.0005624657496809959,-0.0011837318306788802,0.0031932368874549866,31.301665916660568
2025-10-06 13:43:05.725555,0.054893655977211894,-0.22239822607487442,-9.807324898838997,31.420812916650902,-0.005047311983071268,0.004750844445079565,0.010198713541030885,31.420812916650902,0.05583389282226563,-0.22498214721679688,-9.803713073730469,31.415848916658433,-9.59145836532116e-05,0.0011263167252764106,0.0005314224399626255,31.420812916650902
2025-10-06 13:43:05.848324,0.054670196408405904,-0.2224487314000726,-9.807324314117432,31.549889166664798,-0.006919499072246254,0.003753528725355864,0.009300581216812135,31.549889166664798,0.0508941650390625,-0.21285736083984377,-9.806407470703126,31.544925166643225,-2.8891488909721375e-05,0.0014512708876281977,0.00013042381033301353,31.549889166664798
2025-10-06 13:43:05.980977,0.05505770692136139,-0.2223925981298089,-9.807323729395867,31.678965166647686,0.0028718234226107597,0.002649574410170317,-0.0014781761169433594,31.678965166647686,0.056133270263671875,-0.2231858825683594,-9.797426147460937,31.674001166655216,-0.00010902853682637215,-0.0016462848288938403,-0.00018764659762382507,31.678965166647686
2025-10-06 13:43:06.111866,0.054937405027449135,-0.22200441610068083,-9.80733191549778,31.808041166659677,-0.000600408548489213,0.007650222871452571,0.007513087391853333,31.808041166659677,0.04775070190429688,-0.2165995788574219,-9.813891906738283,31.803077166667208,-0.0013355547562241554,-0.001225947984494269,0.002171049127355218,31.808041166659677
2025-10-06 13:43:06.254258,0.055476230517961085,-0.2218310096114874,-9.807335423827173,31.937117166642565,0.0021539269527420402,0.005680496916174889,0.003771454095840454,31.937117166642565,0.056133270263671875,-0.2165995788574219,-9.804910583496094,31.94208116666414,0.0007380945608019829,0.0006735247443430126,-0.0015486148186028004,31.937117166642565
2025-10-06 13:43:06.427927,0.05601881101727486,-0.22131539482623339,-9.80734185576439,32.12576616666047,-0.004675588952377439,-0.0014213850349187851,-0.0013091915845870972,32.12576616666047,0.057330780029296875,-0.22468276977539064,-9.810748443603517,32.120802166668,-0.0010745958425104618,6.857505650259554e-05,0.0024006166495382786,32.12576616666047
2025-10-06 13:43:06.552531,0.05647027545142919,-0.22102639619261027,-9.807350041866304,32.244913166650804,-0.003181077176705003,-0.0011117201484739782,0.007077469825744629,32.244913166650804,0.052989807128906254,-0.2219883728027344,-9.799222412109376,32.24987816665089,-0.0006982013583183289,-0.001549176755361259,0.0012786141596734524,32.244913166650804
2025-10-06 13:43:06.677823,0.056858740705065434,-0.22109985183924438,-9.80734302520752,32.373989166662795,-0.0004260975681245327,-0.0005891252495348454,0.001235516667366028,32.373989166662795,0.058528289794921876,-0.22243743896484375,-9.803713073730469,32.37895416666288,0.0004747603088617325,0.00011312306742183864,0.0006060097366571426,32.373989166662795
2025-10-06 13:43:06.801448,0.056894650831818584,-0.22076690772548319,-9.807350626587867,32.49313616665313,-0.0025576452165842057,0.004466706309467554,0.004386581182479859,32.49313616665313,0.055384826660156254,-0.21689895629882813,-9.804611206054688,32.498101166653214,0.0005139075219631195,0.0013785776682198048,-0.0018550842069089413,32.49313616665313
2025-10-06 13:43:06.942443,0.056950025791302324,-0.22022742899134756,-9.807362905740739,32.64207016665023,-0.0036608412209898234,0.003927209302783012,0.001853567361831665,32.64207016665023,0.054636383056640626,-0.2165995788574219,-9.801018676757813,32.637105166650144,-0.0002322099171578884,0.0009411008795723319,-0.0002506272867321968,32.64207016665023
2025-10-06 13:43:07.093248,0.05621889085974545,-0.21997338574379682,-9.807372261285783,32.791004166647326,-0.003528461172245443,-0.0021646757796406745,0.0018629229068756103,32.791004166647326,0.05194198608398438,-0.22153930664062502,-9.8052099609375,32.78603916664724,0.00046036625280976295,0.0005909683532081544,0.002989876549690962,32.791004166647326
2025-10-06 13:43:07.216732,0.056062866132706404,-0.2192237726971507,-9.807388633489609,32.910151166666765,0.0017169709224253893,0.008911174926906825,0.0035276252031326296,32.910151166666765,0.05598358154296875,-0.21091140747070314,-9.805060272216798,32.915115166659234,-0.0023668655194342136,-0.0005314334994181991,-0.0009269965812563896,32.910151166666765
2025-10-06 13:43:07.369635,0.055818402268923824,-0.21904822831973433,-9.807393895983697,33.0690131666488,0.00046455214731395245,-0.0035388993658125403,0.009071370363235473,33.0690131666488,0.056582336425781254,-0.22378463745117189,-9.799821166992189,33.06404916665633,0.0001319614239037037,-0.00047107957652769983,-0.00010576564818620682,33.0690131666488
2025-10-06 13:43:07.496510,0.056309586656279866,-0.2187986070290208,-9.807397404313088,33.18816016666824,-0.0010744532849639656,-0.001393464580178261,0.004133981466293335,33.18816016666824,0.058677978515625,-0.22094055175781252,-9.800719299316407,33.193125166668324,-0.0014767285902053118,0.001132555422373116,0.0023838146589696407,33.18816016666824
2025-10-06 13:43:07.725764,0.05585562345106155,-0.2185349158756435,-9.807405590415001,33.42645416664891,0.003720482820644975,0.003132865056395531,0.004292441010475159,33.42645416664891,0.05284011840820313,-0.22168899536132813,-9.816885681152344,33.42149016665644,0.0018915566615760326,0.0014943535206839442,-0.00043173646554350853,33.42645416664891
2025-10-06 13:43:07.850879,0.05546168100088835,-0.21849742060527205,-9.807409098744392,33.5456012916693,-0.0005259250709787011,-0.0016946692764759064,-0.004985336065292358,33.5456012916693,0.0568817138671875,-0.22153930664062502,-9.812245330810548,33.54063729164773,-0.0003852415829896927,-0.0005894331261515617,0.0005065829027444124,33.5456012916693
2025-10-06 13:43:07.971736,0.05549959653988481,-0.21836541971191764,-9.807410268187523,33.67467729165219,-0.0008632089151069522,-0.00556894300505519,0.011932997703552247,33.67467729165219,0.054187316894531254,-0.21899459838867188,-9.804760894775391,33.66971329165972,-0.0011040768586099148,-5.871232133358717e-06,0.0016636948566883802,33.67467729165219
2025-10-06 13:43:08.101836,0.0553015175415203,-0.21851911012083294,-9.807412022352219,33.79382429164252,-0.006952056186273694,0.00027291879057884217,0.008787195682525634,33.79382429164252,0.04879852294921875,-0.2197430419921875,-9.801617431640626,33.798789291642606,0.0007589566521346569,-0.0007730969227850437,-0.0010544522665441036,33.79382429164252
2025-10-06 13:43:08.222522,0.055971690681763,-0.21813761584460736,-9.80741436123848,33.922900291654514,0.006149123841896653,-0.009987976234406233,0.005647825598716736,33.922900291654514,0.056582336425781254,-0.22243743896484375,-9.806257781982422,33.917936291662045,-0.0005131671205163002,3.6217737942934036e-05,-0.000905617605894804,33.922900291654514
2025-10-06 13:43:08.417467,0.05600053390022368,-0.2180488843470812,-9.80741436123848,34.09169229166582,0.003725251955911517,-0.00378972664475441,-0.005577074289321899,34.09169229166582,0.05763015747070313,-0.22079086303710938,-9.800569610595703,34.08672729166574,0.0005319220945239067,-0.0002363787789363414,-0.0008742138743400574,34.09169229166582
2025-10-06 13:43:08.570625,0.05586500183679164,-0.21845318276435138,-9.807409098744392,34.260483291669516,-0.0030248834285885096,-0.005331454686820507,0.0044438838958740234,34.260483291669516,0.0520916748046875,-0.22303619384765627,-9.80281494140625,34.2654482916696,0.0018953322432935238,0.0001385682844556868,-0.0002747299149632454,34.260483291669516
2025-10-06 13:43:08.696848,0.05537141460925341,-0.2183566123433411,-9.807414945960046,34.389559291652404,-0.000884715705178678,-0.001536136642098427,0.009238600730895996,34.389559291652404,0.05703140258789063,-0.2225871276855469,-9.795480194091798,34.384595291659934,0.0003533894196152687,0.0017793010920286179,0.001165216788649559,34.389559291652404
2025-10-06 13:43:08.819842,0.05536924017593265,-0.21894805820658805,-9.807399158477784,34.518635291664395,-0.0022297488944604993,-0.004237806089222432,0.011022001504898071,34.518635291664395,0.049846343994140625,-0.219144287109375,-9.804760894775391,34.51367129164282,0.003050526138395071,-9.26818756852299e-05,0.00184687040746212,34.518635291664395
2025-10-06 13:43:08.975185,0.055176757145673036,-0.2187860537879169,-9.807403836250305,34.667568666656734,-0.0005403786571696401,-0.005896697714924812,0.002793799638748169,34.667568666656734,0.056133270263671875,-0.22378463745117189,-9.80236587524414,34.672532666649204,0.0002269498072564602,0.0029423569794744253,0.00039191311225295067,34.667568666656734
2025-10-06 13:43:09.109937,0.05558589322026819,-0.21868983054533603,-9.807405005693436,34.796644666668726,-5.137783940881491e-05,0.0005933462083339691,0.00728446125984192,34.796644666668726,0.05822891235351563,-0.22228775024414063,-9.808203735351563,34.79167966666864,-0.00046588992699980736,-0.001999933971092105,-0.0004998361691832542,34.796644666668726
2025-10-06 13:43:09.254892,0.05513645703904331,-0.2191212454251945,-9.807398573756219,34.95550766665838,0.0014458793867379428,-0.0018193063326179982,0.0024874055385589603,34.95550766665838,0.0544866943359375,-0.22722747802734375,-9.808652801513672,34.95054266665829,-0.0014740379992872477,-0.0017651231028139591,-0.0013818759471178055,34.95550766665838
2025-10-06 13:43:09.386755,0.054747301996685566,-0.2194401927664876,-9.807392726540566,35.07465466664871,-0.0032543866429477933,-0.0017996998876333237,0.005176540017127991,35.07465466664871,0.051492919921875005,-0.22049148559570314,-9.80281494140625,35.079618666670285,-0.001039048656821251,0.0008381606312468648,0.00029654568061232567,35.07465466664871
2025-10-06 13:43:09.504106,0.05406130482908338,-0.2196885532513261,-9.80738980293274,35.203730666660704,0.00012600749731063845,0.0012927280180156232,0.006372295618057251,35.203730666660704,0.04954696655273438,-0.21420455932617188,-9.798623657226562,35.19876566666062,0.00011149374768137932,-0.0011896714568138123,-0.0007630344480276108,35.203730666660704
2025-10-06 13:43:09.634184,0.05439122940413654,-0.21932185973972082,-9.807398573756219,35.33280666664359,0.0008439085353165865,0.0025725921615958216,0.014911569356918336,35.33280666664359,0.050295410156250005,-0.2183958435058594,-9.801467742919922,35.32784166664351,-0.0005866512656211853,0.001452113501727581,0.0012716632336378098,35.33280666664359
2025-10-06 13:43:09.754503,0.05395554331596941,-0.2194621746428311,-9.807398573756219,35.45195366666303,0.005919949533417821,-0.0032746600359678272,0.011617248058319093,35.45195366666303,0.06032455444335938,-0.22168899536132813,-9.795330505371094,35.4569176666555,-0.0015453447122126818,0.00029528100276365876,-0.002329281996935606,35.45195366666303
2025-10-06 13:43:09.876655,0.053672474124468864,-0.2201794452778995,-9.807382201552391,35.571101416659076,-0.0021795587707310916,-0.0012101360969245434,0.010704497694969178,35.571101416659076,0.05074447631835938,-0.223934326171875,-9.797126770019531,35.576065416651545,-0.004045803099870682,0.0018623139476403594,-7.908837869763374e-05,35.571101416659076
2025-10-06 13:43:10.013880,0.05352436141110957,-0.22003063363954425,-9.807385709881784,35.710105416656006,0.0027585975732654336,0.007921716403216124,0.0006794464588165284,35.710105416656006,0.054187316894531254,-0.21270767211914063,-9.809401245117188,35.71507041665609,0.0006559751927852631,-0.0010251500643789768,-0.0010002600029110909,35.710105416656006
2025-10-06 13:43:10.138515,0.05308409348130226,-0.2195294907130301,-9.80740091264248,35.839181416668,-0.0032377494871616364,-0.00590172266587615,0.005034452676773072,35.839181416668,0.052989807128906254,-0.2149530029296875,-9.80416213989258,35.834217416646425,-0.00019780360162258148,0.0026093991473317146,0.0002639726735651493,35.839181416668
2025-10-06 13:43:10.260558,0.05357840247452259,-0.2197756219469011,-9.807390387654305,35.95832841665833,0.0036026842659339312,-0.0017636664211750032,0.0023312848806381226,35.95832841665833,0.05822891235351563,-0.22498214721679688,-9.802665252685548,35.95336441666586,0.0017763660289347172,-0.0012808686587959528,-0.0014240466989576817,35.95832841665833
2025-10-06 13:43:10.385761,0.053382287775166334,-0.21975687431171537,-9.807396819591522,36.07747541664867,0.0006553586712107062,-0.0025309490226209166,-0.0036545097827911377,36.07747541664867,0.0532891845703125,-0.22153930664062502,-9.809850311279297,36.08244041664875,2.5758985430002213e-05,0.0012925365008413792,0.0018176054581999779,36.07747541664867
2025-10-06 13:43:10.512342,0.0533521837508306,-0.21971503017470242,-9.807397404313088,36.20655141666066,0.013109621945768596,-0.000776510238647461,0.008321757316589356,36.20655141666066,0.06466552734375,-0.22004241943359376,-9.798324279785156,36.21151641666074,-0.0019173684995621443,0.00108009809628129,0.00013602012768387794,36.20655141666066
2025-10-06 13:43:10.649287,0.05325459463521839,-0.21977712029591204,-9.80739097237587,36.345556416665204,3.457623068243265e-05,0.0045247947424650195,0.012811249494552613,36.345556416665204,0.055085449218750006,-0.22273681640625,-9.801767120361328,36.34059241664363,-0.0010306457988917828,0.0008678633021190763,-0.0023513110354542732,36.345556416665204
2025-10-06 13:43:10.788419,0.05315249220002443,-0.22030665876343847,-9.807382786273957,36.48456141666975,-0.001360194836743176,-0.002879223804920912,0.011303837299346925,36.48456141666975,0.05284011840820313,-0.22378463745117189,-9.797575836181641,36.48952641666983,0.0016555404290556908,0.000643977546133101,0.0028637684881687164,36.48456141666975
2025-10-06 13:43:10.914431,0.0535298660164699,-0.220359210614115,-9.807376939058305,36.603707916656276,0.002902772552333772,0.0004665164463222027,-0.0014237970113754274,36.603707916656276,0.057330780029296875,-0.21794677734375,-9.805359649658204,36.60867291665636,0.0007133549079298973,6.445299368351698e-05,9.880680590867996e-05,36.603707916656276
2025-10-06 13:43:11.042460,0.053534470698796216,-0.22081704759970308,-9.807366998791695,36.73278391666827,-0.0029396968055516483,0.007510675415396691,0.008595407009124756,36.73278391666827,0.05284011840820313,-0.2125579833984375,-9.795031127929688,36.73774891666835,-0.00037926388904452324,-0.0006171069690026343,0.0013632974587380886,36.73278391666827
2025-10-06 13:43:11.169272,0.0532149432040751,-0.22121935430914164,-9.807361151576043,36.861859916651156,0.0014214398525655271,0.0019253967516124249,0.009486522674560547,36.861859916651156,0.055384826660156254,-0.22004241943359376,-9.797126770019531,36.86682491665124,-9.559094905853271e-06,0.0018078491557389498,0.0007975040934979916,36.861859916651156
2025-10-06 13:43:11.307953,0.05336293714586646,-0.22102688955143096,-9.807365829348564,37.0008649166557,0.004416909045539797,0.004427310694009066,0.008741587400436401,37.0008649166557,0.05763015747070313,-0.21644989013671875,-9.797725524902344,37.005829916655784,0.0006911372765898705,-0.0007532733725383878,0.0006462759338319302,37.0008649166557
2025-10-06 13:43:11.439317,0.05268857502378524,-0.22131170377135279,-9.807359982132912,37.12994091666769,0.006737833390943707,-0.00621509687975049,0.008738079071044923,37.12994091666769,0.05987548828125,-0.22842498779296877,-9.799521789550782,37.134905916667776,0.00018901750445365906,-0.0010041313944384456,0.002290021162480116,37.12994091666769
2025-10-06 13:43:11.578214,0.0523290215106681,-0.22120162993669512,-9.807365829348564,37.27887491666479,-0.0003870354266837239,0.005500183403491974,0.017125325202941896,37.27887491666479,0.044008483886718755,-0.21585113525390626,-9.793983306884765,37.27390991666471,-0.0019145682454109192,-0.0007606465369462967,0.0006215206813067198,37.27887491666479
2025-10-06 13:43:11.712979,0.05125153498258442,-0.22201305901631713,-9.807351211309433,37.40795091664768,0.005630165180191398,-0.00027463641017675403,0.003790165185928345,37.40795091664768,0.05718109130859375,-0.2233355712890625,-9.804910583496094,37.41291491666925,0.0015645725652575493,0.0002498194226063788,0.0006066844798624516,37.40795091664768
2025-10-06 13:43:11.852745,0.05066236405167729,-0.222261127140373,-9.807352965474129,37.546955708327005,0.0071174958441406495,0.00491304986178875,0.0024406278133392335,37.546955708327005,0.057330780029296875,-0.219144287109375,-9.806557159423829,37.551919708319474,-0.00040830811485648155,-0.001035827910527587,0.002044632565230131,37.546955708327005
2025-10-06 13:43:11.978438,0.05064685522578657,-0.22262423923239114,-9.80734185576439,37.67603170830989,0.00309139093849808,-0.001160379946231842,0.0031808853149414063,37.67603170830989,0.05763015747070313,-0.2136058044433594,-9.80955093383789,37.67106670830981,0.00151788629591465,0.00023826968390494585,-0.0015156394802033901,37.67603170830989
2025-10-06 13:43:12.123009,0.05040039508603514,-0.22243235919624568,-9.807346533536911,37.81503670831444,0.013067608787678183,0.0019409284181892872,0.003785487413406372,37.81503670831444,0.0628692626953125,-0.22094055175781252,-9.80326400756836,37.82000070833601,0.0007112715393304825,0.00028669563471339643,0.0005685149226337671,37.81503670831444
2025-10-06 13:43:12.261951,0.05047181791160256,-0.2226763159967959,-9.80734302520752,37.963970708311535,-0.0027211160073056817,0.0039810950495302675,0.011264076232910156,37.963970708311535,0.05792953491210938,-0.22273681640625,-9.807604980468751,37.95900570831145,-0.003848586231470108,-0.0005429851589724422,0.0020141105633229017,37.963970708311535
2025-10-06 13:43:12.389866,0.050476851998828356,-0.22230414072051646,-9.807352965474129,38.083117708330974,0.008799885967746378,0.00854862928390503,0.004236892461776734,38.083117708330974,0.06077362060546875,-0.21480331420898438,-9.806407470703126,38.08808170832344,-0.0008361660875380039,7.914402522146702e-05,0.001420304412022233,38.083117708330974
2025-10-06 13:43:12.530328,0.05062714371364564,-0.22282616917043926,-9.807335423827173,38.222121708327904,0.0005663850624114276,0.0026341158337891105,0.005271849632263184,38.222121708327904,0.050295410156250005,-0.22123992919921875,-9.798773345947266,38.22708670832799,-0.0010826955549418926,-0.000982049503363669,-0.002306460402905941,38.222121708327904
2025-10-06 13:43:12.676616,0.050932843456976115,-0.22287106482312086,-9.807336008548736,38.371055708325,0.00490104936528951,0.0037267777137458325,-0.0005683493614196777,38.371055708325,0.0556842041015625,-0.21944366455078126,-9.80565902709961,38.376020708325086,-0.002197012072429061,0.0029950879979878664,3.105495125055313e-05,38.371055708325
2025-10-06 13:43:12.813770,0.05188254548236728,-0.22264486894011498,-9.807333084940911,38.51006070832955,0.010238259905017913,0.002303126882761717,0.006616709232330323,38.51006070832955,0.056582336425781254,-0.2137554931640625,-9.798174591064454,38.50509670833708,-2.260785549879074e-05,7.674269727431238e-05,0.00016824528574943542,38.51006070832955
2025-10-06 13:43:12.937747,0.052239298727363354,-0.2228022686764598,-9.807330161333084,38.63913683331339,0.004343033130280674,0.006053019370883704,-0.00042392313480377197,38.63913683331339,0.056133270263671875,-0.21869522094726562,-9.806557159423829,38.63417283332092,-0.00011215126141905785,0.0011260458268225193,-0.0004194607026875019,38.63913683331339
2025-10-06 13:43:13.065105,0.05239927489310503,-0.22304781518876554,-9.807324314117432,38.758283833332825,0.001338975839316845,0.00929234029725194,0.008700656890869142,38.758283833332825,0.053887939453125006,-0.21450393676757815,-9.806407470703126,38.75331983331125,0.00018821749836206436,0.0012294271728023887,0.001216966425999999,38.758283833332825
2025-10-06 13:43:13.205599,0.05237103010062129,-0.2233650266379118,-9.807317882180214,38.90721783332992,-0.001925931223668158,0.0019754087179899215,-0.0032814574241638184,38.90721783332992,0.04924758911132813,-0.21959335327148438,-9.800120544433595,38.902253833337454,-0.0010695429518818855,0.0015923900064080954,0.0004739824216812849,38.90721783332992
2025-10-06 13:43:13.346576,0.05193234274629504,-0.22334370257332922,-9.80731846690178,39.04622283333447,-0.005678537185303867,0.0039000562950968743,0.0009127503633499147,39.04622283333447,0.05643264770507813,-0.23052062988281252,-9.801767120361328,39.041258833312895,-0.00040933722630143166,0.0002520203124731779,-0.0019609834998846054,39.04622283333447
2025-10-06 13:43:13.474756,0.051661909022368495,-0.2233533687517047,-9.807323729395867,39.1653698333248,0.00327386518009007,0.001215252410620451,0.007499638795852662,39.1653698333248,0.060474243164062504,-0.22438339233398438,-9.806407470703126,39.160405833332334,0.0015540258027613163,-0.0005293978028930724,0.001545401755720377,39.1653698333248
2025-10-06 13:43:13.613771,0.05143279866781086,-0.2234918746724725,-9.807319051623345,39.30437483332935,0.012334596351720394,0.007940098587423564,0.008396601676940918,39.30437483332935,0.06316864013671876,-0.21540206909179688,-9.79847396850586,39.30933983332943,0.0013422532938420773,0.0002301313797943294,-0.0012316103093326092,39.30437483332935
2025-10-06 13:43:13.752723,0.051459449180401864,-0.2233481245301664,-9.80732197523117,39.453308833326446,0.00392537291161716,0.004353544414043427,0.010345478653907777,39.453308833326446,0.05553451538085938,-0.22019210815429688,-9.798174591064454,39.44834483333398,-0.00039409706369042397,-0.00023241157759912312,-0.00088461022824049,39.453308833326446
2025-10-06 13:43:13.878235,0.05165450407192111,-0.2233994521200657,-9.807320805788041,39.572455416666344,0.00971787141636014,0.004255183283239603,0.0013624012470245363,39.572455416666344,0.06122268676757813,-0.21884490966796877,-9.803713073730469,39.57742041666643,0.0018186429515480995,0.0025339974090456963,-0.0013008140958845615,39.572455416666344
2025-10-06 13:43:14.026693,0.051876570358872415,-0.22331167079508304,-9.807319051623345,39.70153141664923,6.541115697473288e-05,0.00506553428247571,-0.001930750608444214,39.70153141664923,0.0520916748046875,-0.21674926757812502,-9.808353424072266,39.706496416649316,0.0014030104503035545,-0.00026333864661864936,0.0020623761229217052,39.70153141664923
2025-10-06 13:43:14.152371,0.052226434852927925,-0.22251136969774962,-9.807336008548736,39.85046541664633,0.01064282327424735,0.00261863898485899,0.013503559827804566,39.85046541664633,0.05059478759765625,-0.22363494873046877,-9.799372100830078,39.84550141665386,-3.302702680230141e-05,0.0010742231970652938,-0.001886867918074131,39.85046541664633
2025-10-06 13:43:14.287142,0.05245589238591492,-0.22298488453030588,-9.807325483560563,39.989470416650875,0.006671152291819454,0.0020443327724933625,0.0045105421543121344,39.989470416650875,0.05194198608398438,-0.2177970886230469,-9.798174591064454,39.98450541665079,0.0007108389399945736,0.0009475803235545754,0.0012572293635457754,39.989470416650875
2025-10-06 13:43:14.431241,0.052436158033087855,-0.22285732386633755,-9.80733074605465,40.12847541665542,-0.0007935448223724961,0.003862707205116749,0.008106579780578613,40.12847541665542,0.060474243164062504,-0.21959335327148438,-9.81284408569336,40.123510416655336,-0.0005100634880363941,-0.000549820251762867,0.0016591998282819986,40.12847541665542
2025-10-06 13:43:14.558699,0.052726326109841466,-0.2231574870273471,-9.80731846690178,40.25755141666741,0.0013112929277122021,0.002216971814632416,0.01004376232624054,40.25755141666741,0.053738250732421874,-0.2219883728027344,-9.797575836181641,40.26251541665988,-0.0017406416591256857,0.002048514550551772,0.001162013504654169,40.25755141666741
2025-10-06 13:43:14.686984,0.05346578875556589,-0.22318610183894635,-9.807314373850822,40.3866274166503,0.0004221461294218898,0.004790294878184795,0.006895621418952942,40.3866274166503,0.054935760498046875,-0.2213896179199219,-9.796677703857423,40.381662416650215,0.0007120091468095779,0.000678769894875586,-0.001136640552431345,40.3866274166503
2025-10-06 13:43:14.814379,0.05392876489553601,-0.22296522326767446,-9.807317297458649,40.50577441666974,0.0007076135929673911,0.008910370934754611,1.2279152870178224e-05,40.50577441666974,0.056133270263671875,-0.21285736083984377,-9.805509338378906,40.51073841666221,0.0009543271735310555,-0.00080395134864375,-0.0009330869652330875,40.50577441666974
2025-10-06 13:43:14.951252,0.05425344068091363,-0.22284360118210317,-9.80731963634491,40.64478029165184,-0.0012636289838701487,0.007142136376351118,0.0048029029369354255,40.64478029165184,0.05523513793945313,-0.21630020141601564,-9.803413696289063,40.64974429164431,-0.001979832537472248,0.002144251484423876,-0.0016289330087602139,40.64478029165184
2025-10-06 13:43:15.074375,0.054314288268797105,-0.22295404046773912,-9.807316712737084,40.763927291642176,0.0033158692019060257,0.0002172423340380192,-0.0029832494258880617,40.763927291642176,0.05792953491210938,-0.2233355712890625,-9.80955093383789,40.76889229164226,-0.0003477334976196289,0.00041976047214120626,-0.00010150764137506485,40.763927291642176
2025-10-06 13:43:15.216002,0.054429789050482215,-0.22238764626905322,-9.807328991889953,40.91286129166838,0.000655664736405015,0.008033379949629308,0.004363192319869995,40.91286129166838,0.0508941650390625,-0.22049148559570314,-9.802964630126954,40.907897291646805,0.0010334854014217854,0.0002300250926055014,-0.0020104022696614265,40.91286129166838
2025-10-06 13:43:15.354718,0.054125825199298566,-0.22242653025314213,-9.807329576611519,41.05186629164382,0.0038037097128108145,0.0034319318644702437,0.005711560249328613,41.05186629164382,0.05718109130859375,-0.22004241943359376,-9.79997085571289,41.05683029166539,-0.0005020867101848125,-0.0017410514410585165,0.00030294526368379593,41.05186629164382
2025-10-06 13:43:15.476338,0.05379662238992751,-0.22187725743278863,-9.807343609929084,41.17101329166326,0.004132912522181869,0.0012360831163823606,0.004378395080566406,41.17101329166326,0.0484991455078125,-0.22273681640625,-9.803563385009767,41.16604929167079,0.001413288526237011,-0.000150890409713611,0.0015554577112197876,41.17101329166326
2025-10-06 13:43:15.635626,0.05439499354921282,-0.22234194662421944,-9.80733074605465,41.32987629165291,0.0023370453016832472,0.0020000949315726758,0.0036159181594848633,41.32987629165291,0.0544866943359375,-0.22123992919921875,-9.801916809082032,41.33484029164538,0.0027301060035824776,-0.0002417238720227033,0.0017698025330901146,41.32987629165291
2025-10-06 13:43:15.772122,0.05444139668717981,-0.22260958464816213,-9.807322559952736,41.46888129165745,0.006032846476882696,0.00032183440402150154,0.014537347555160523,41.46888129165745,0.05643264770507813,-0.22064117431640626,-9.801767120361328,41.46391629165737,-0.0010775602422654629,-0.0015954331029206514,0.0004615415818989277,41.46888129165745
2025-10-06 13:43:15.913931,0.054244879991747444,-0.22273751076310874,-9.80731846690178,41.60788633330958,0.003385259206406772,-0.008381800912320615,0.011990885138511658,41.60788633330958,0.05598358154296875,-0.23007156372070314,-9.79368392944336,41.61285033333115,-0.0020277313888072968,-0.00042054514051415026,-0.00020242482423782349,41.60788633330958
2025-10-06 13:43:16.132879,0.053796517322771256,-0.22258531870320442,-9.807327822446824,41.80646433332004,-0.0002079553110525012,-0.005540309920907021,0.0003215968608856201,41.80646433332004,0.054187316894531254,-0.2273771667480469,-9.808652801513672,41.81142933332012,-0.0008383626118302345,-0.000504337134771049,-0.001068193931132555,41.80646433332004
2025-10-06 13:43:16.451853,0.05361888073850423,-0.2232801689207554,-9.8073096960783,42.14404833331355,-0.0030241068452596664,0.00024402989074587823,-0.000292360782623291,42.14404833331355,0.04685256958007813,-0.223934326171875,-9.806108093261718,42.139083333313465,-0.0008100722916424274,-0.002254344755783677,0.0012142532505095005,42.14404833331355
2025-10-06 13:43:16.625817,0.05424976789858192,-0.22345143752172592,-9.80730501830578,42.32276933331741,-0.002607168392278254,0.006552499495446683,0.010178248286247254,42.32276933331741,0.052241363525390626,-0.21929397583007815,-9.797426147460937,42.32773333330988,0.0007836674340069294,-0.0010226700687780976,0.0014075881335884333,42.32276933331741
2025-10-06 13:43:16.765727,0.05449119395110756,-0.22405324392020703,-9.807287476658821,42.461774333321955,0.005084898616187275,0.00041836827993392946,0.0025289207696914673,42.461774333321955,0.058977355957031255,-0.22378463745117189,-9.805060272216798,42.466738333314424,-0.0012762334663420916,0.0011915648356080055,-5.980394780635834e-05,42.461774333321955
2025-10-06 13:43:16.890390,0.05465772996190936,-0.22431293338537217,-9.807279875278473,42.590849791653454,0.0013258333085104824,0.005767492521554232,0.016742332577705386,42.590849791653454,0.05284011840820313,-0.22228775024414063,-9.811047821044923,42.58588479165337,0.0002891062758862972,4.0562154026702046e-05,0.001565498998388648,42.590849791653454
2025-10-06 13:43:17.033745,0.05467480109073222,-0.2237338763102889,-9.8072962474823,42.729854791658,-0.003181881168857217,0.0038411638699471953,-0.0016559314727783204,42.729854791658,0.05239105224609375,-0.22064117431640626,-9.80850311279297,42.73481879165047,-0.0008928249590098858,0.00048479920951649547,-0.0006159120239317417,42.729854791658
2025-10-06 13:43:17.188150,0.05508308749180287,-0.2235912773385644,-9.807295662760735,42.8787887916551,-0.0008957797335460782,0.004147667605429888,0.004482475519180298,42.8787887916551,0.054187316894531254,-0.21929397583007815,-9.802066497802734,42.88375279164757,-0.0007410366088151932,-0.0009310536552220583,-0.0010581370443105698,42.8787887916551
2025-10-06 13:43:17.326675,0.05534964286722243,-0.22320744417607785,-9.807301509976387,43.01779379165964,-0.005353623856790364,0.0006203713081777096,-0.0037433874607086183,43.01779379165964,0.0496966552734375,-0.22109024047851564,-9.810748443603517,43.02275779165211,-9.879563003778458e-05,0.0013719482813030481,0.0013586438726633787,43.01779379165964
2025-10-06 13:43:17.457690,0.05494683823082596,-0.22376196121796968,-9.807292739152908,43.14686979164253,-0.0036036115977913143,0.003869248777627945,0.01405904531478882,43.14686979164253,0.05044509887695313,-0.22019210815429688,-9.796528015136719,43.1518337916641,0.001744419801980257,-0.00038238742854446173,0.0020238112192600965,43.14686979164253
2025-10-06 13:43:17.600192,0.05459810206666589,-0.22474745459854603,-9.807273443341256,43.29580379166873,0.0003376584313809872,0.01503353862091899,-0.00033095240592956543,43.29580379166873,0.056133270263671875,-0.21031265258789064,-9.807904357910157,43.3007677916612,-0.0006822040304541588,-0.001206667977385223,0.0002345978282392025,43.29580379166873
2025-10-06 13:43:17.725849,0.05480899468995631,-0.22489454861730337,-9.807269935011865,43.42487979165162,-0.0033160747680813078,0.0008105337247252465,0.0037059652805328373,43.42487979165162,0.05478607177734375,-0.22767654418945313,-9.814640350341797,43.419914791651536,-0.00037460634484887123,0.000434691843111068,-0.0022275885567069054,43.42487979165162
2025-10-06 13:43:17.898428,0.054723629909567535,-0.22485550018027425,-9.807269935011865,43.58374233331415,-0.00038662886247038843,0.002418079487979412,-0.002130725383758545,43.58374233331415,0.05284011840820313,-0.2221380615234375,-9.808952178955078,43.58870633333572,-0.002462815260514617,-0.0008905620779842138,0.00014032935723662376,43.58374233331415
2025-10-06 13:43:18.025317,0.0548854150576517,-0.22544159218668938,-9.807255901694298,43.722747333318694,-0.001147168893367052,0.002854482773691416,0.01641605794429779,43.722747333318694,0.05718109130859375,-0.22602996826171876,-9.789642333984375,43.71778233331861,-0.0011540986597537994,0.00037277390947565436,0.001111344899982214,43.722747333318694
2025-10-06 13:43:18.149247,0.05442997177597136,-0.22490134600549938,-9.807270519733429,43.851823333330685,-0.0005420368909835816,0.011145871113985777,0.014485307335853577,43.851823333330685,0.05119354248046875,-0.21689895629882813,-9.795779571533204,43.8468583333306,0.001658461056649685,-0.0007377360016107559,0.00137746287509799,43.851823333330685
2025-10-06 13:43:18.270978,0.05449117567855865,-0.22497396111488344,-9.80727168917656,43.96104133332847,-0.0006032225210219622,0.004931486863642931,0.013136354684829713,43.96104133332847,0.05598358154296875,-0.22183868408203125,-9.793384552001953,43.966005333320936,0.00040190061554312706,0.0009831322822719812,-0.0020320815965533257,43.96104133332847
2025-10-06 13:43:18.399176,0.054558245069347325,-0.22422688795253637,-9.807284553050996,44.090117333311355,-0.0018678199499845506,0.005381996557116509,0.0019260728359222414,44.090117333311355,0.054187316894531254,-0.2183958435058594,-9.807904357910157,44.09508233331144,-0.0012106229551136494,-0.000490952399559319,-0.0002460172399878502,44.090117333311355
2025-10-06 13:43:18.527512,0.05455731773748994,-0.2242626838758588,-9.807286891937256,44.21919333332335,0.003970985761843622,0.007812738921493293,0.014498755931854249,44.21919333332335,0.05942642211914063,-0.21570144653320314,-9.793085174560547,44.22415833332343,0.0018284148536622524,-0.0026492406614124775,0.0005649900995194912,44.21919333332335
2025-10-06 13:43:18.742145,0.054379580654203896,-0.2242198712937534,-9.807285722494125,44.417772333312314,-0.0016891555348411203,0.0032793560810387137,-0.005407505035400391,44.417772333312314,0.050295410156250005,-0.21809646606445313,-9.802964630126954,44.41280733331223,0.0013391836546361446,0.0005351465661078691,0.0013035479933023453,44.417772333312314
2025-10-06 13:43:18.941378,0.05425115204416216,-0.22474266719073058,-9.807276951670648,44.61635616666172,0.0027802551118656996,0.0027542761154472828,0.0014664816856384277,44.61635616666172,0.06032455444335938,-0.22692810058593751,-9.803563385009767,44.61139116666163,0.0018805842846632004,0.00021019717678427696,0.00019982177764177322,44.61635616666172
2025-10-06 13:43:19.090962,0.05453921420965344,-0.22439759010449054,-9.8072827988863,44.775218166643754,0.0014443719014525414,0.01139052227139473,0.006263537406921387,44.775218166643754,0.05523513793945313,-0.21270767211914063,-9.802515563964844,44.78018316664384,-0.0012738571967929602,-0.0007873159484006464,0.000990007072687149,44.775218166643754
2025-10-06 13:43:19.227776,0.054090367318131036,-0.22344834946095946,-9.807307941913605,44.924152166669955,0.004737313622608781,0.006998422779142857,0.008831634521484376,44.924152166669955,0.052241363525390626,-0.22109024047851564,-9.801767120361328,44.91918816664838,-0.0022915471345186234,-0.0008136392571032047,0.0012853930238634348,44.924152166669955
2025-10-06 13:43:19.366291,0.05376486013177782,-0.22302753265947103,-9.80731846690178,45.0631571666454,0.004913122951984406,0.0011888303048908711,0.010938971042633057,45.0631571666454,0.0568817138671875,-0.2231858825683594,-9.788295135498048,45.05819316665293,-0.00041891541332006454,0.0009661212097853422,0.0009969044476747513,45.0631571666454
2025-10-06 13:43:19.512891,0.053884732620790604,-0.22299718195572496,-9.807317297458649,45.202163166657556,-0.002990567581728101,-0.0006377667747437954,0.012585546970367432,45.202163166657556,0.051043853759765626,-0.22408401489257815,-9.795480194091798,45.207127166650025,-0.0015736152417957783,0.0006716160569339991,0.00040905200876295567,45.202163166657556
2025-10-06 13:43:19.647399,0.054298345469869676,-0.22296823823824527,-9.807314958572388,45.3411681666621,-0.0008594767469912767,0.0021773934736847877,0.007194998860359192,45.3411681666621,0.05583389282226563,-0.22019210815429688,-9.79892303466797,45.34613216665457,0.00010144151747226715,0.0009621740318834782,-0.0024559488520026207,45.3411681666621
2025-10-06 13:43:19.783064,0.054274184592068196,-0.22203259237110615,-9.807336008548736,45.480173166666646,0.007247875048778951,0.005582720506936312,-0.002363444566726685,45.480173166666646,0.060474243164062504,-0.21630020141601564,-9.805509338378906,45.485137166659115,-0.001890567597001791,-0.0006588005926460028,-8.784141391515732e-05,45.480173166666646
2025-10-06 13:43:19.932383,0.05458219124469906,-0.22235413441434504,-9.807329576611519,45.629103458311874,0.003796414397656918,0.003359499480575323,0.00930292010307312,45.629103458311874,0.05523513793945313,-0.21899459838867188,-9.805060272216798,45.62413845831179,-0.002474757144227624,0.00102033163420856,0.0004915683530271053,45.629103458311874
2025-10-06 13:43:20.093689,0.0544600118463859,-0.22262451332062483,-9.807322559952736,45.76810845831642,0.0039185846596956255,0.0010852249525487424,0.004357929825782776,45.76810845831642,0.058528289794921876,-0.21944366455078126,-9.80281494140625,45.77307245830889,-0.0016316636465489864,0.00200141710229218,0.0005609847139567137,45.76810845831642
2025-10-06 13:43:20.217332,0.05448298500850797,-0.22244851212948563,-9.807328991889953,45.91704245831352,0.0010515440767630935,0.002106660436838865,-0.0020745921134948733,45.91704245831352,0.04954696655273438,-0.22423370361328127,-9.797575836181641,45.91207745831343,-0.00010217633098363876,0.0008131854701787233,0.001615521963685751,45.91704245831352
2025-10-06 13:43:20.373597,0.05458350686822087,-0.2220499147474766,-9.807337177991867,46.065976458310615,-0.004886837890371681,6.14871270954609e-05,0.006166473627090455,46.065976458310615,0.04775070190429688,-0.22034179687500002,-9.80131805419922,46.07094045833219,0.0010700132697820663,-0.0005667091463692486,-0.001618027687072754,46.065976458310615
2025-10-06 13:43:20.493399,0.05486457064747811,-0.22191617796197535,-9.807338347434998,46.19505245832261,-0.0006772400485351682,0.0011252418346703052,0.0034732460975646974,46.19505245832261,0.05822891235351563,-0.22109024047851564,-9.793983306884765,46.19008745832252,-0.0016910864505916834,-0.0005833290633745492,0.0005873437039554119,46.19505245832261
2025-10-06 13:43:20.626378,0.055049950224347416,-0.2216934173181653,-9.80734185576439,46.3241284583346,-0.0001141851581633091,0.009135433919727803,-0.003856823444366455,46.3241284583346,0.0556842041015625,-0.21959335327148438,-9.802665252685548,46.319164458313026,-0.002874282654374838,-0.0028999359346926212,-0.0005814759060740471,46.3241284583346
2025-10-06 13:43:20.747702,0.055198451229371136,-0.22183369567617775,-9.807336008548736,46.44327545832493,-0.002208648668602109,0.0038869183324277403,0.006317916512489319,46.44327545832493,0.05284011840820313,-0.2183958435058594,-9.800270233154297,46.44824045832502,0.00032958388328552246,0.0011884561972692609,0.0003595193848013878,46.44327545832493
2025-10-06 13:43:20.871583,0.05479139822535217,-0.22212841361761093,-9.807333669662476,46.572351166658336,-0.0007537654833868146,0.0011878253147006035,0.006912578344345093,46.572351166658336,0.05014572143554688,-0.219144287109375,-9.806557159423829,46.56738716666587,0.0009836829267442226,0.000789970625191927,2.4232547730207443e-05,46.572351166658336
2025-10-06 13:43:20.998119,0.05468752335291356,-0.2219907299615443,-9.807334839105607,46.691499166656286,0.0003979212976992131,0.010929633770138026,0.0009279531240463258,46.691499166656286,0.055384826660156254,-0.21270767211914063,-9.807006225585939,46.696463166648755,-0.001739350613206625,-0.0005089511978439987,-0.003544371109455824,46.691499166656286
2025-10-06 13:43:21.116994,0.05499933983199299,-0.2219891950674355,-9.807334839105607,46.81064616664662,0.0009842462791129947,0.0003001814335584641,0.006913747787475586,46.81064616664662,0.055384826660156254,-0.22123992919921875,-9.799372100830078,46.81561016666819,7.787393406033516e-05,0.0009213105076923966,0.0025472540874034166,46.81064616664662
2025-10-06 13:43:21.237709,0.05467982147354633,-0.22192089227959516,-9.807337177991867,46.93972216665861,-0.0010912548936903477,0.004572851546108723,-0.00281251072883606,46.93972216665861,0.04924758911132813,-0.2137554931640625,-9.808203735351563,46.93475816666614,0.0003103134222328663,-0.00022724433802068233,-0.0007200213149189949,46.93972216665861
2025-10-06 13:43:21.361895,0.054193118428811436,-0.2222601038776338,-9.807333084940911,47.05886916664895,-0.0076399262901395565,-0.00107546741142869,0.009756664037704468,47.05886916664895,0.046403503417968756,-0.2225871276855469,-9.797575836181641,47.06383416664903,-0.0012116148136556149,-0.0014560057315975428,0.0007858849130570889,47.05886916664895
2025-10-06 13:43:21.504987,0.053861654391512276,-0.2224258358962834,-9.80733191549778,47.19787416665349,-0.0043146741343662144,-0.002556366138160229,0.007658683061599732,47.19787416665349,0.04939727783203125,-0.2245330810546875,-9.803413696289063,47.202839166653575,-0.001519171753898263,5.5956305004656315e-05,-0.0012665502727031708,47.19787416665349
2025-10-06 13:43:21.630297,0.053323692278936505,-0.22246961692348124,-9.807333669662476,47.326951166643994,0.0038574035977944733,0.001379358172416687,0.009157909154891968,47.326951166643994,0.058528289794921876,-0.22049148559570314,-9.796228637695313,47.33191516666557,0.00016294792294502258,0.0009653164888732135,0.0011675490532070398,47.326951166643994
2025-10-06 13:43:21.774257,0.053411099016666415,-0.22220152208581567,-9.807339516878129,47.46595616664854,0.005715950229205191,0.0006621971726417542,0.004972472190856934,47.46595616664854,0.05763015747070313,-0.22228775024414063,-9.800569610595703,47.47092016667011,1.8014106899499893e-05,0.00012546568177640438,0.0008201133459806442,47.46595616664854
2025-10-06 13:43:21.909291,0.0538541535101831,-0.22189116284251215,-9.80734185576439,47.585102916666074,0.002728178347460926,0.00828537667170167,-0.0029569369554519657,47.585102916666074,0.058528289794921876,-0.21330642700195312,-9.806257781982422,47.59006791666616,-0.0009791930206120014,-0.002235578838735819,-0.002101426012814045,47.585102916666074
2025-10-06 13:43:22.047657,0.053847817503847185,-0.2221517842076719,-9.807338932156563,47.743965916655725,0.0037823536712676287,0.004055263325572014,0.016946400403976443,47.743965916655725,0.0580792236328125,-0.21644989013671875,-9.78844482421875,47.74893091665581,0.001119422260671854,0.0007997044594958425,0.0009211576543748379,47.743965916655725
2025-10-06 13:43:22.191159,0.0543340911436826,-0.2221430133841932,-9.807336008548736,47.89289991665282,0.011978016695939005,0.0007533771917223931,0.0015261232852935792,47.89289991665282,0.05703140258789063,-0.21794677734375,-9.794282684326172,47.88793591666035,0.0014367522671818733,-0.00019028809037990868,-0.0023434720933437347,47.89289991665282
2025-10-06 13:43:22.313046,0.0543432137137279,-0.2226594138890505,-9.807323144674301,48.01204691664316,-0.005095624602399766,0.00905360944569111,0.016782678365707397,48.01204691664316,0.05523513793945313,-0.21420455932617188,-9.797276458740235,48.00708291665069,0.0008068368770182133,-1.7944665160030127e-05,-0.00017282972112298012,48.01204691664316
2025-10-06 13:43:22.435232,0.05456729911733419,-0.2227543215081096,-9.80731846690178,48.13119491667021,-0.007565045384690166,-0.0026768735982477666,0.015281698107719422,48.13119491667021,0.047451324462890625,-0.2267784118652344,-9.79368392944336,48.13615891666268,-0.001091672107577324,0.0004187232116237283,-0.0007695164531469345,48.13119491667021
2025-10-06 13:43:22.604594,0.05417628484312445,-0.22189710142090918,-9.80734185576439,48.28012891666731,0.005549519285559654,0.006644702777266503,0.006621387004852295,48.28012891666731,0.05942642211914063,-0.21330642700195312,-9.800419921875001,48.28509291665978,-0.0019851590041071177,0.0017262008041143417,-0.0012061879970133305,48.28012891666731
2025-10-06 13:43:22.756955,0.05371446444187314,-0.22170260841026904,-9.807343609929084,48.44892091664951,-0.0013234304683282972,-0.0016328897885978222,0.003035874366760254,48.44892091664951,0.05179229736328125,-0.22123992919921875,-9.804012451171875,48.45388491664198,-0.001616159686818719,-0.002405562438070774,0.0015734040644019842,48.44892091664951
2025-10-06 13:43:22.881482,0.05357367902062834,-0.2217908282764256,-9.807345948815346,48.57799716666341,0.004655228764750064,0.008334730826318264,-0.0010068905353546142,48.57799716666341,0.06062393188476563,-0.21405487060546877,-9.810898132324219,48.58296116665588,0.0009063738398253918,0.0007834665011614561,0.0005516659002751112,48.57799716666341
2025-10-06 13:43:23.014098,0.05292853470426053,-0.22113659793511034,-9.807365244626999,48.707073166646296,0.003204735559411347,-0.0059411913715302946,-0.003682576417922974,48.707073166646296,0.052241363525390626,-0.21869522094726562,-9.811945953369142,48.70210916665383,-0.000122870784252882,0.0017856601625680923,-0.001387106254696846,48.707073166646296
2025-10-06 13:43:23.158931,0.05331779938191176,-0.22096801539883018,-9.807366998791695,48.856007166643394,0.005958938584662974,-0.002217885442078114,0.01098808765411377,48.856007166643394,0.05987548828125,-0.22288650512695313,-9.796977081298829,48.86097216664348,0.0016975575126707554,0.0012448790948837996,-0.00019898265600204468,48.856007166643394
2025-10-06 13:43:23.279845,0.05317504966165871,-0.22060694983229043,-9.807373430728912,48.97515516667045,-0.006621866659261287,0.005504294726997614,0.012643434405326844,48.97515516667045,0.04685256958007813,-0.21615051269531252,-9.795779571533204,48.98011916666292,-0.0004414506256580353,-0.0008368692360818386,-0.0004383288323879242,48.97515516667045
2025-10-06 13:43:23.403898,0.0527753011090681,-0.21994469784200193,-9.807391557097436,49.104231166653335,-8.48714215680957e-05,0.0019979204982519152,0.0008349823951721192,49.104231166653335,0.054187316894531254,-0.22049148559570314,-9.799072723388672,49.09926616665325,0.0004198201932013035,-0.0001451441494282335,-0.0012755710631608963,49.104231166653335
2025-10-06 13:43:23.550295,0.05299172117840499,-0.21914954960346222,-9.807410268187523,49.24323616665788,0.002842176211997867,0.0028493299148976805,0.009084234237670899,49.24323616665788,0.0556842041015625,-0.2171983337402344,-9.797426147460937,49.24820016665035,0.0002940758131444454,-4.299671854823828e-05,0.000254657119512558,49.24323616665788
2025-10-06 13:43:23.695689,0.052995494459755724,-0.21866554632782936,-9.807421962618829,49.382241166662425,0.007029687110334635,0.005059723611921072,0.0008630490303039552,49.382241166662425,0.06077362060546875,-0.21600082397460937,-9.807155914306641,49.38720616666251,-0.0012777196243405342,-0.0005368820857256651,-0.0026014731265604496,49.382241166662425
2025-10-06 13:43:23.827025,0.05263875948730856,-0.21804349394515157,-9.807437165379525,49.52124616666697,-0.0009961462765932085,-0.008435558751225472,-0.002115522623062134,49.52124616666697,0.04924758911132813,-0.22617965698242187,-9.808802490234376,49.52621116666705,-0.0013692013453692198,0.0010299968998879194,0.0011000512167811394,49.52124616666697
2025-10-06 13:43:23.953501,0.05223894241265953,-0.21810333654284478,-9.80743775010109,49.64039429166587,0.006439040671102703,0.0038987589441239834,0.0025259971618652346,49.64039429166587,0.058528289794921876,-0.21644989013671875,-9.803862762451173,49.64535829165834,0.001570865511894226,-0.0007078512571752071,0.002699989825487137,49.64039429166587
2025-10-06 13:43:24.344241,0.051653686375357215,-0.2175750406086445,-9.80745002925396,49.987907291651936,-0.005100498804822565,-0.0011201620660722257,0.004187191128730774,49.987907291651936,0.0484991455078125,-0.214354248046875,-9.79892303466797,49.98294229165185,0.001063167117536068,0.0011562872678041458,0.00113916234113276,49.987907291651936
2025-10-06 13:43:24.491212,0.05101634443737567,-0.21758583968505266,-9.807452368140222,50.18648529166239,0.004069100213237107,0.0012856565415859224,0.010926107168197632,50.18648529166239,0.054935760498046875,-0.21600082397460937,-9.797875213623048,50.19145029166248,-0.00016986578702926636,-0.002009905409067869,0.002195877954363823,50.18648529166239
2025-10-06 13:43:24.641878,0.05101576428394765,-0.21749517129734158,-9.807456461191178,50.32549129164545,-0.0013191090105101467,-0.005241645108908415,0.004641519784927368,50.32549129164545,0.048648834228515625,-0.2225871276855469,-9.801467742919922,50.33045529166702,-0.001214130548760295,-0.0005919773830100894,-0.001501224935054779,50.32549129164545
2025-10-06 13:43:24.813576,0.05150124763604254,-0.2167825418896973,-9.807469325065613,50.49428329165676,0.0008898046100512147,-0.0014636128954589368,0.012438197135925293,50.49428329165676,0.0520916748046875,-0.2185455322265625,-9.793384552001953,50.499247291649226,-0.0026926116552203894,0.0020180847495794296,0.0003291289322078228,50.49428329165676
2025-10-06 13:43:25.041875,0.05272410142701119,-0.21647777404636145,-9.80747224867344,50.663074666663306,-0.006021206863224507,-0.0029659453220665455,0.009594111442565919,50.663074666663306,0.046702880859375004,-0.2197430419921875,-9.799521789550782,50.668038666655775,-0.0001312997192144394,-0.0009431717917323112,-0.0010722456499934196,50.663074666663306
2025-10-06 13:43:25.220038,0.05301277115475387,-0.2169088600203395,-9.807460554242134,50.91129766666563,0.0005757954251021147,-0.001936067920178175,0.004045103788375855,50.91129766666563,0.049097900390625004,-0.21405487060546877,-9.799521789550782,50.90633366664406,-0.001893429784104228,0.0010637207888066769,0.000532025471329689,50.91129766666563
2025-10-06 13:43:25.356187,0.052815701714716855,-0.21693297978490592,-9.807458215355874,51.05030366664869,0.006461022547446192,-0.004606290310621262,-0.002390926480293274,51.05030366664869,0.058677978515625,-0.21884490966796877,-9.809401245117188,51.05526766667026,0.0014645210467278957,0.0008237053407356143,0.000268793199211359,51.05030366664869
2025-10-06 13:43:25.478334,0.053044784660451115,-0.2168338146619499,-9.807459384799005,51.17937966666068,0.012818247880786659,0.005922425463795662,0.006141915321350098,51.17937966666068,0.05478607177734375,-0.21869522094726562,-9.807006225585939,51.174414666660596,1.1255033314228058e-06,0.0009345131693407893,-0.0023651928640902042,51.17937966666068
2025-10-06 13:43:25.605178,0.052848532916978004,-0.2172698524966836,-9.807451783418657,51.298526666651014,-0.002104056598618627,-0.004568831585347653,0.0074809277057647705,51.298526666651014,0.051492919921875005,-0.22423370361328127,-9.801916809082032,51.3034916666511,4.3643638491630554e-05,0.00019146624254062772,0.0022878553718328476,51.298526666651014
2025-10-06 13:43:25.728830,0.05330787738785148,-0.2165769757144153,-9.807464062571526,51.427602666663006,0.0037235206319019202,-0.0009207171946763993,0.007343518137931824,51.427602666663006,0.06122268676757813,-0.21615051269531252,-9.797276458740235,51.42263866667054,0.00044960714876651764,-0.0002088239707518369,-0.0007532048039138317,51.427602666663006
2025-10-06 13:43:25.855613,0.05284720358904452,-0.21658092258498074,-9.807466401457788,51.546750666660955,-0.00135428823530674,-0.007203678321093321,0.009741461277008057,51.546750666660955,0.05059478759765625,-0.22483245849609376,-9.796827392578125,51.551714666653425,0.0028254641219973564,-0.0020442635286599398,-0.0005869604647159576,51.546750666660955
2025-10-06 13:43:25.985912,0.052590168211609126,-0.21742663096636536,-9.807449444532395,51.68575616666931,0.00174683740362525,-0.0011189012601971627,0.005981701612472534,51.68575616666931,0.052989807128906254,-0.21555175781250002,-9.800569610595703,51.680792166647734,0.0008057435043156147,-0.000609439448453486,-0.001666349358856678,51.68575616666931
2025-10-06 13:43:26.116207,0.052821832154877485,-0.2179076192714274,-9.80743775010109,51.80490316665964,0.007951788450591267,0.004750880990177393,0.006269384622573853,51.80490316665964,0.058977355957031255,-0.21480331420898438,-9.803114318847657,51.809868166659726,-0.0013999480288475752,-0.0006125842919573188,0.0008958913385868073,51.80490316665964
2025-10-06 13:43:26.260816,0.05260741292964667,-0.21793135531246663,-9.807435995936395,51.953838166664355,-0.0021623277571052313,-0.005404142886400223,0.0110600084066391,51.953838166664355,0.04819976806640625,-0.22228775024414063,-9.795929260253907,51.958802166656824,0.00015801377594470978,0.001035352237522602,-0.0006710379384458065,51.953838166664355
2025-10-06 13:43:26.392608,0.05290942161809653,-0.2183804032020271,-9.807427809834481,52.08291416664724,-0.00036867608316242694,-0.0007639021798968316,0.011197417974472046,52.08291416664724,0.05358856201171875,-0.2177970886230469,-9.796977081298829,52.087878166668816,0.0019195382483303547,0.0009208922274410725,-0.0012358729727566242,52.08291416664724
2025-10-06 13:43:26.532587,0.053461444457061594,-0.21887754444032909,-9.807410852909088,52.211990166659234,0.0002767971390858293,0.005720824431627989,0.0048970431089401245,52.211990166659234,0.0520916748046875,-0.21450393676757815,-9.801916809082032,52.21695516665932,-0.002317118924111128,-0.00020634528482332826,0.0020573060028254986,52.211990166659234
2025-10-06 13:43:26.666969,0.05389518908690662,-0.2191972957737744,-9.80740208208561,52.36092416665633,0.0001424390869215131,-0.0014438785426318646,0.0012945735454559326,52.36092416665633,0.05748046875,-0.21764739990234377,-9.800270233154297,52.35596016666386,0.0013262396678328514,-0.00013894401490688324,0.0012661498039960861,52.36092416665633
2025-10-06 13:43:26.814063,0.05386249492876232,-0.2185829726792872,-9.807416115403177,52.49993016666849,-0.007758368952199817,-0.004752598609775305,0.009840863943099977,52.49993016666849,0.047900390625000004,-0.223934326171875,-9.798773345947266,52.50489416666096,0.0007855654694139957,-0.001704589114524424,0.0016132094897329807,52.49993016666849
2025-10-06 13:43:26.937979,0.05415888480842114,-0.2186557705141604,-9.807412022352219,52.63893491664203,-0.001468464257195592,0.0028046718053519725,0.009837940335273743,52.63893491664203,0.056282958984375006,-0.21749771118164063,-9.798174591064454,52.63397091664956,0.002287440001964569,0.0004914269084110856,-0.00022425781935453415,52.63893491664203
2025-10-06 13:43:27.061479,0.05403814437333495,-0.2194675467722118,-9.807396234869957,52.75808191666147,-0.0013477192539721728,0.004215184673666954,0.009820398688316346,52.75808191666147,0.052241363525390626,-0.2136058044433594,-9.798174591064454,52.76304691666155,-4.8144254833459854e-05,0.0007733575766906142,-0.0003882269375026226,52.75808191666147
2025-10-06 13:43:27.186518,0.053950509228743615,-0.21989943673834206,-9.807384540438653,52.87722991665942,-0.0005116450740024448,-0.00478329649195075,0.0026259845495224,52.87722991665942,0.053438873291015626,-0.22483245849609376,-9.805060272216798,52.882193916651886,-0.0002500545233488083,-0.0009200843051075935,0.0003911643289029598,52.87722991665942
2025-10-06 13:43:27.312624,0.05342015306465328,-0.22060939835384488,-9.80737635433674,53.006305916642305,0.005557216596789659,0.003860075958073139,0.007103197574615479,53.006305916642305,0.060923309326171876,-0.21510269165039064,-9.799671478271485,53.01127091664239,-0.0015605960506945848,0.00036447023740038276,-0.0006444784812629223,53.006305916642305
2025-10-06 13:43:27.458756,0.053430883619003,-0.22052452236413958,-9.807378693223,53.14531091664685,0.0049477311596274375,0.004673332292586565,-0.0014267206192016602,53.14531091664685,0.05882766723632813,-0.21510269165039064,-9.812095642089844,53.15027591664693,0.0008626757189631462,0.0010155984200537205,0.0010802608449012041,53.14531091664685
2025-10-06 13:43:27.593450,0.05370986432768405,-0.22044213144108654,-9.807375184893608,53.274387916666456,0.006614685547538102,0.0009984851628541947,0.01144650936126709,53.274387916666456,0.060923309326171876,-0.21749771118164063,-9.794282684326172,53.279351916658925,0.0007818033918738365,0.00033320707734674215,-0.003514307551085949,53.274387916666456
2025-10-06 13:43:27.729790,0.053238930492661894,-0.2208135209977627,-9.807371091842652,53.423321916663554,-0.005338535299524665,-0.0004264264740049839,-0.001582256555557251,53.423321916663554,0.060474243164062504,-0.21689895629882813,-9.79607894897461,53.41835691666347,0.000438423827290535,-7.620756514370441e-05,-0.0002030152827501297,53.423321916663554
2025-10-06 13:43:27.854171,0.052776191895827655,-0.22007660737261178,-9.80739097237587,53.55239791664644,-0.0027801546128466727,0.0006329245492815972,0.002329530715942383,53.55239791664644,0.0520916748046875,-0.21674926757812502,-9.802066497802734,53.54743391665397,0.0007991367019712925,-1.8676568288356066e-05,0.0013135573826730251,53.55239791664644
2025-10-06 13:43:27.980297,0.052626210814341906,-0.2200826921314001,-9.80739097237587,53.67154554167064,0.003357375296764076,0.0024352922290563584,0.002479219436645508,53.67154554167064,0.05598358154296875,-0.21585113525390626,-9.80416213989258,53.67650954166311,-0.0020715349819511175,-0.0007078081252984703,-7.277214899659157e-05,53.67154554167064
