timestamp,gravity_x,gravity_y,gravity_z,gravity_time,lin_acc_x,lin_acc_y,lin_acc_z,lin_acc_time,acc_x,acc_y,acc_z,acc_time,gyro_x,gyro_y,gyro_z,gyro_time
2025-10-03 16:04:53.724848,-2.060148613750935,-0.21470223046839237,9.58883666932583,67.78830841666422,-0.04926469221711159,-0.0987459689565003,0.08599441587924958,67.78830841666422,-2.11480224609375,-0.3129991149902344,9.674681396484376,67.78830841666422,-0.0009922967292368412,-0.005382554605603218,-0.030864933505654335,67.78830841666422
2025-10-03 16:04:53.847345,-2.060148613750935,-0.21470223046839237,9.58883666932583,67.78830841666422,-0.04926469221711159,-0.0987459689565003,0.08599441587924958,67.78830841666422,-2.11480224609375,-0.3129991149902344,9.674681396484376,67.78830841666422,-0.0009922967292368412,-0.005382554605603218,-0.030864933505654335,67.78830841666422
2025-10-03 16:04:53.980889,-2.060148613750935,-0.21470223046839237,9.58883666932583,67.78830841666422,-0.04926469221711159,-0.0987459689565003,0.08599441587924958,67.78830841666422,-2.11480224609375,-0.3129991149902344,9.674681396484376,67.78830841666422,-0.0009922967292368412,-0.005382554605603218,-0.030864933505654335,67.78830841666422
2025-10-03 16:04:54.108233,-2.060148613750935,-0.21470223046839237,9.58883666932583,67.78830841666422,-0.04926469221711159,-0.0987459689565003,0.08599441587924958,67.78830841666422,-2.11480224609375,-0.3129991149902344,9.674681396484376,67.78830841666422,-0.0009922967292368412,-0.005382554605603218,-0.030864933505654335,67.78830841666422
2025-10-03 16:04:54.235717,-2.060148613750935,-0.21470223046839237,9.58883666932583,67.78830841666422,-0.04926469221711159,-0.0987459689565003,0.08599441587924958,67.78830841666422,-2.11480224609375,-0.3129991149902344,9.674681396484376,67.78830841666422,-0.0009922967292368412,-0.005382554605603218,-0.030864933505654335,67.78830841666422
2025-10-03 16:04:54.361145,-2.060148613750935,-0.21470223046839237,9.58883666932583,67.78830841666422,-0.04926469221711159,-0.0987459689565003,0.08599441587924958,67.78830841666422,-2.11480224609375,-0.3129991149902344,9.674681396484376,67.78830841666422,-0.0009922967292368412,-0.005382554605603218,-0.030864933505654335,67.78830841666422
2025-10-03 16:04:54.521910,-2.060148613750935,-0.21470223046839237,9.58883666932583,67.78830841666422,-0.04926469221711159,-0.0987459689565003,0.08599441587924958,67.78830841666422,-2.11480224609375,-0.3129991149902344,9.674681396484376,67.78830841666422,-0.0009922967292368412,-0.005382554605603218,-0.030864933505654335,67.78830841666422
2025-10-03 16:04:54.653385,-2.060148613750935,-0.21470223046839237,9.58883666932583,67.78830841666422,-0.04926469221711159,-0.0987459689565003,0.08599441587924958,67.78830841666422,-2.11480224609375,-0.3129991149902344,9.674681396484376,67.78830841666422,-0.0009922967292368412,-0.005382554605603218,-0.030864933505654335,67.78830841666422
2025-10-03 16:04:54.786686,-2.060148613750935,-0.21470223046839237,9.58883666932583,67.78830841666422,-0.04926469221711159,-0.0987459689565003,0.08599441587924958,67.78830841666422,-2.11480224609375,-0.3129991149902344,9.674681396484376,67.78830841666422,-0.0009922967292368412,-0.005382554605603218,-0.030864933505654335,67.78830841666422
2025-10-03 16:04:54.912366,-2.060148613750935,-0.21470223046839237,9.58883666932583,67.78830841666422,-0.04926469221711159,-0.0987459689565003,0.08599441587924958,67.78830841666422,-2.11480224609375,-0.3129991149902344,9.674681396484376,67.78830841666422,-0.0009922967292368412,-0.005382554605603218,-0.030864933505654335,67.78830841666422
2025-10-03 16:04:55.068825,-2.060148613750935,-0.21470223046839237,9.58883666932583,67.78830841666422,-0.04926469221711159,-0.0987459689565003,0.08599441587924958,67.78830841666422,-2.11480224609375,-0.3129991149902344,9.674681396484376,67.78830841666422,-0.0009922967292368412,-0.005382554605603218,-0.030864933505654335,67.78830841666422
2025-10-03 16:04:55.202915,-2.060148613750935,-0.21470223046839237,9.58883666932583,67.78830841666422,-0.04926469221711159,-0.0987459689565003,0.08599441587924958,67.78830841666422,-2.11480224609375,-0.3129991149902344,9.674681396484376,67.78830841666422,-0.0009922967292368412,-0.005382554605603218,-0.030864933505654335,67.78830841666422
2025-10-03 16:04:55.348046,-2.060148613750935,-0.21470223046839237,9.58883666932583,67.78830841666422,-0.04926469221711159,-0.0987459689565003,0.08599441587924958,67.78830841666422,-2.11480224609375,-0.3129991149902344,9.674681396484376,67.78830841666422,-0.0009922967292368412,-0.005382554605603218,-0.030864933505654335,67.78830841666422
2025-10-03 16:04:55.477945,-2.060148613750935,-0.21470223046839237,9.58883666932583,67.78830841666422,-0.04926469221711159,-0.0987459689565003,0.08599441587924958,67.78830841666422,-2.11480224609375,-0.3129991149902344,9.674681396484376,67.78830841666422,-0.0009922967292368412,-0.005382554605603218,-0.030864933505654335,67.78830841666422
2025-10-03 16:04:55.619506,-2.060148613750935,-0.21470223046839237,9.58883666932583,67.78830841666422,-0.04926469221711159,-0.0987459689565003,0.08599441587924958,67.78830841666422,-2.11480224609375,-0.3129991149902344,9.674681396484376,67.78830841666422,-0.0009922967292368412,-0.005382554605603218,-0.030864933505654335,67.78830841666422
2025-10-03 16:04:55.761199,-2.060148613750935,-0.21470223046839237,9.58883666932583,67.78830841666422,-0.04926469221711159,-0.0987459689565003,0.08599441587924958,67.78830841666422,-2.11480224609375,-0.3129991149902344,9.674681396484376,67.78830841666422,-0.0009922967292368412,-0.005382554605603218,-0.030864933505654335,67.78830841666422
2025-10-03 16:04:55.900826,-2.060148613750935,-0.21470223046839237,9.58883666932583,67.78830841666422,-0.04926469221711159,-0.0987459689565003,0.08599441587924958,67.78830841666422,-2.11480224609375,-0.3129991149902344,9.674681396484376,67.78830841666422,-0.0009922967292368412,-0.005382554605603218,-0.030864933505654335,67.78830841666422
2025-10-03 16:04:56.041960,-2.060148613750935,-0.21470223046839237,9.58883666932583,67.78830841666422,-0.04926469221711159,-0.0987459689565003,0.08599441587924958,67.78830841666422,-2.11480224609375,-0.3129991149902344,9.674681396484376,67.78830841666422,-0.0009922967292368412,-0.005382554605603218,-0.030864933505654335,67.78830841666422
2025-10-03 16:04:56.170255,-2.060148613750935,-0.21470223046839237,9.58883666932583,67.78830841666422,-0.04926469221711159,-0.0987459689565003,0.08599441587924958,67.78830841666422,-2.11480224609375,-0.3129991149902344,9.674681396484376,67.78830841666422,-0.0009922967292368412,-0.005382554605603218,-0.030864933505654335,67.78830841666422
2025-10-03 16:04:56.292089,-2.060148613750935,-0.21470223046839237,9.58883666932583,67.78830841666422,-0.04926469221711159,-0.0987459689565003,0.08599441587924958,67.78830841666422,-2.11480224609375,-0.3129991149902344,9.674681396484376,67.78830841666422,-0.0009922967292368412,-0.005382554605603218,-0.030864933505654335,67.78830841666422
2025-10-03 16:04:56.416538,-2.060148613750935,-0.21470223046839237,9.58883666932583,67.78830841666422,-0.04926469221711159,-0.0987459689565003,0.08599441587924958,67.78830841666422,-2.11480224609375,-0.3129991149902344,9.674681396484376,67.78830841666422,-0.0009922967292368412,-0.005382554605603218,-0.030864933505654335,67.78830841666422
2025-10-03 16:04:56.565294,-2.060148613750935,-0.21470223046839237,9.58883666932583,67.78830841666422,-0.04926469221711159,-0.0987459689565003,0.08599441587924958,67.78830841666422,-2.11480224609375,-0.3129991149902344,9.674681396484376,67.78830841666422,-0.0009922967292368412,-0.005382554605603218,-0.030864933505654335,67.78830841666422
2025-10-03 16:04:56.717976,-2.060148613750935,-0.21470223046839237,9.58883666932583,67.78830841666422,-0.04926469221711159,-0.0987459689565003,0.08599441587924958,67.78830841666422,-2.11480224609375,-0.3129991149902344,9.674681396484376,67.78830841666422,-0.0009922967292368412,-0.005382554605603218,-0.030864933505654335,67.78830841666422
2025-10-03 16:04:56.851073,-2.060148613750935,-0.21470223046839237,9.58883666932583,67.78830841666422,-0.04926469221711159,-0.0987459689565003,0.08599441587924958,67.78830841666422,-2.11480224609375,-0.3129991149902344,9.674681396484376,67.78830841666422,-0.0009922967292368412,-0.005382554605603218,-0.030864933505654335,67.78830841666422
2025-10-03 16:04:56.979865,-2.060148613750935,-0.21470223046839237,9.58883666932583,67.78830841666422,-0.04926469221711159,-0.0987459689565003,0.08599441587924958,67.78830841666422,-2.11480224609375,-0.3129991149902344,9.674681396484376,67.78830841666422,-0.0009922967292368412,-0.005382554605603218,-0.030864933505654335,67.78830841666422
2025-10-03 16:04:57.111255,-2.060148613750935,-0.21470223046839237,9.58883666932583,67.78830841666422,-0.04926469221711159,-0.0987459689565003,0.08599441587924958,67.78830841666422,-2.11480224609375,-0.3129991149902344,9.674681396484376,67.78830841666422,-0.0009922967292368412,-0.005382554605603218,-0.030864933505654335,67.78830841666422
2025-10-03 16:04:57.245079,-2.060148613750935,-0.21470223046839237,9.58883666932583,67.78830841666422,-0.04926469221711159,-0.0987459689565003,0.08599441587924958,67.78830841666422,-2.11480224609375,-0.3129991149902344,9.674681396484376,67.78830841666422,-0.0009922967292368412,-0.005382554605603218,-0.030864933505654335,67.78830841666422
2025-10-03 16:04:57.370906,-2.060148613750935,-0.21470223046839237,9.58883666932583,67.78830841666422,-0.04926469221711159,-0.0987459689565003,0.08599441587924958,67.78830841666422,-2.11480224609375,-0.3129991149902344,9.674681396484376,67.78830841666422,-0.0009922967292368412,-0.005382554605603218,-0.030864933505654335,67.78830841666422
2025-10-03 16:04:57.485733,-2.060148613750935,-0.21470223046839237,9.58883666932583,67.78830841666422,-0.04926469221711159,-0.0987459689565003,0.08599441587924958,67.78830841666422,-2.11480224609375,-0.3129991149902344,9.674681396484376,67.78830841666422,-0.0009922967292368412,-0.005382554605603218,-0.030864933505654335,67.78830841666422
2025-10-03 16:04:57.620990,-2.060148613750935,-0.21470223046839237,9.58883666932583,67.78830841666422,-0.04926469221711159,-0.0987459689565003,0.08599441587924958,67.78830841666422,-2.11480224609375,-0.3129991149902344,9.674681396484376,67.78830841666422,-0.0009922967292368412,-0.005382554605603218,-0.030864933505654335,67.78830841666422
2025-10-03 16:04:57.752336,-2.060148613750935,-0.21470223046839237,9.58883666932583,67.78830841666422,-0.04926469221711159,-0.0987459689565003,0.08599441587924958,67.78830841666422,-2.11480224609375,-0.3129991149902344,9.674681396484376,67.78830841666422,-0.0009922967292368412,-0.005382554605603218,-0.030864933505654335,67.78830841666422
2025-10-03 16:04:57.883850,-2.060148613750935,-0.21470223046839237,9.58883666932583,67.78830841666422,-0.04926469221711159,-0.0987459689565003,0.08599441587924958,67.78830841666422,-2.11480224609375,-0.3129991149902344,9.674681396484376,67.78830841666422,-0.0009922967292368412,-0.005382554605603218,-0.030864933505654335,67.78830841666422
2025-10-03 16:04:58.002799,-2.060148613750935,-0.21470223046839237,9.58883666932583,67.78830841666422,-0.04926469221711159,-0.0987459689565003,0.08599441587924958,67.78830841666422,-2.11480224609375,-0.3129991149902344,9.674681396484376,67.78830841666422,-0.0009922967292368412,-0.005382554605603218,-0.030864933505654335,67.78830841666422
2025-10-03 16:04:58.123726,-2.060148613750935,-0.21470223046839237,9.58883666932583,67.78830841666422,-0.04926469221711159,-0.0987459689565003,0.08599441587924958,67.78830841666422,-2.11480224609375,-0.3129991149902344,9.674681396484376,67.78830841666422,-0.0009922967292368412,-0.005382554605603218,-0.030864933505654335,67.78830841666422
2025-10-03 16:04:58.259165,-2.060148613750935,-0.21470223046839237,9.58883666932583,67.78830841666422,-0.04926469221711159,-0.0987459689565003,0.08599441587924958,67.78830841666422,-2.11480224609375,-0.3129991149902344,9.674681396484376,67.78830841666422,-0.0009922967292368412,-0.005382554605603218,-0.030864933505654335,67.78830841666422
2025-10-03 16:04:58.390206,-2.060148613750935,-0.21470223046839237,9.58883666932583,67.78830841666422,-0.04926469221711159,-0.0987459689565003,0.08599441587924958,67.78830841666422,-2.11480224609375,-0.3129991149902344,9.674681396484376,67.78830841666422,-0.0009922967292368412,-0.005382554605603218,-0.030864933505654335,67.78830841666422
2025-10-03 16:04:58.509235,-2.060148613750935,-0.21470223046839237,9.58883666932583,67.78830841666422,-0.04926469221711159,-0.0987459689565003,0.08599441587924958,67.78830841666422,-2.11480224609375,-0.3129991149902344,9.674681396484376,67.78830841666422,-0.0009922967292368412,-0.005382554605603218,-0.030864933505654335,67.78830841666422
2025-10-03 16:04:58.637036,-2.060148613750935,-0.21470223046839237,9.58883666932583,67.78830841666422,-0.04926469221711159,-0.0987459689565003,0.08599441587924958,67.78830841666422,-2.11480224609375,-0.3129991149902344,9.674681396484376,67.78830841666422,-0.0009922967292368412,-0.005382554605603218,-0.030864933505654335,67.78830841666422
2025-10-03 16:04:58.765037,-2.060148613750935,-0.21470223046839237,9.58883666932583,67.78830841666422,-0.04926469221711159,-0.0987459689565003,0.08599441587924958,67.78830841666422,-2.11480224609375,-0.3129991149902344,9.674681396484376,67.78830841666422,-0.0009922967292368412,-0.005382554605603218,-0.030864933505654335,67.78830841666422
2025-10-03 16:04:58.886194,-2.060148613750935,-0.21470223046839237,9.58883666932583,67.78830841666422,-0.04926469221711159,-0.0987459689565003,0.08599441587924958,67.78830841666422,-2.11480224609375,-0.3129991149902344,9.674681396484376,67.78830841666422,-0.0009922967292368412,-0.005382554605603218,-0.030864933505654335,67.78830841666422
2025-10-03 16:04:59.010461,-2.060148613750935,-0.21470223046839237,9.58883666932583,67.78830841666422,-0.04926469221711159,-0.0987459689565003,0.08599441587924958,67.78830841666422,-2.11480224609375,-0.3129991149902344,9.674681396484376,67.78830841666422,-0.0009922967292368412,-0.005382554605603218,-0.030864933505654335,67.78830841666422
2025-10-03 16:04:59.134323,-2.060148613750935,-0.21470223046839237,9.58883666932583,67.78830841666422,-0.04926469221711159,-0.0987459689565003,0.08599441587924958,67.78830841666422,-2.11480224609375,-0.3129991149902344,9.674681396484376,67.78830841666422,-0.0009922967292368412,-0.005382554605603218,-0.030864933505654335,67.78830841666422
2025-10-03 16:04:59.259746,-2.060148613750935,-0.21470223046839237,9.58883666932583,67.78830841666422,-0.04926469221711159,-0.0987459689565003,0.08599441587924958,67.78830841666422,-2.11480224609375,-0.3129991149902344,9.674681396484376,67.78830841666422,-0.0009922967292368412,-0.005382554605603218,-0.030864933505654335,67.78830841666422
2025-10-03 16:04:59.393145,-2.060148613750935,-0.21470223046839237,9.58883666932583,67.78830841666422,-0.04926469221711159,-0.0987459689565003,0.08599441587924958,67.78830841666422,-2.11480224609375,-0.3129991149902344,9.674681396484376,67.78830841666422,-0.0009922967292368412,-0.005382554605603218,-0.030864933505654335,67.78830841666422
2025-10-03 16:04:59.523055,-2.060148613750935,-0.21470223046839237,9.58883666932583,67.78830841666422,-0.04926469221711159,-0.0987459689565003,0.08599441587924958,67.78830841666422,-2.11480224609375,-0.3129991149902344,9.674681396484376,67.78830841666422,-0.0009922967292368412,-0.005382554605603218,-0.030864933505654335,67.78830841666422
2025-10-03 16:04:59.656887,-2.060148613750935,-0.21470223046839237,9.58883666932583,67.78830841666422,-0.04926469221711159,-0.0987459689565003,0.08599441587924958,67.78830841666422,-2.11480224609375,-0.3129991149902344,9.674681396484376,67.78830841666422,-0.0009922967292368412,-0.005382554605603218,-0.030864933505654335,67.78830841666422
2025-10-03 16:04:59.774033,-2.060148613750935,-0.21470223046839237,9.58883666932583,67.78830841666422,-0.04926469221711159,-0.0987459689565003,0.08599441587924958,67.78830841666422,-2.11480224609375,-0.3129991149902344,9.674681396484376,67.78830841666422,-0.0009922967292368412,-0.005382554605603218,-0.030864933505654335,67.78830841666422
2025-10-03 16:04:59.901929,-2.060148613750935,-0.21470223046839237,9.58883666932583,67.78830841666422,-0.04926469221711159,-0.0987459689565003,0.08599441587924958,67.78830841666422,-2.11480224609375,-0.3129991149902344,9.674681396484376,67.78830841666422,-0.0009922967292368412,-0.005382554605603218,-0.030864933505654335,67.78830841666422
2025-10-03 16:05:00.025919,-2.060148613750935,-0.21470223046839237,9.58883666932583,67.78830841666422,-0.04926469221711159,-0.0987459689565003,0.08599441587924958,67.78830841666422,-2.11480224609375,-0.3129991149902344,9.674681396484376,67.78830841666422,-0.0009922967292368412,-0.005382554605603218,-0.030864933505654335,67.78830841666422
2025-10-03 16:05:00.153908,-2.060148613750935,-0.21470223046839237,9.58883666932583,67.78830841666422,-0.04926469221711159,-0.0987459689565003,0.08599441587924958,67.78830841666422,-2.11480224609375,-0.3129991149902344,9.674681396484376,67.78830841666422,-0.0009922967292368412,-0.005382554605603218,-0.030864933505654335,67.78830841666422
2025-10-03 16:05:00.285755,-2.060148613750935,-0.21470223046839237,9.58883666932583,67.78830841666422,-0.04926469221711159,-0.0987459689565003,0.08599441587924958,67.78830841666422,-2.11480224609375,-0.3129991149902344,9.674681396484376,67.78830841666422,-0.0009922967292368412,-0.005382554605603218,-0.030864933505654335,67.78830841666422
2025-10-03 16:05:00.420900,-2.060148613750935,-0.21470223046839237,9.58883666932583,67.78830841666422,-0.04926469221711159,-0.0987459689565003,0.08599441587924958,67.78830841666422,-2.11480224609375,-0.3129991149902344,9.674681396484376,67.78830841666422,-0.0009922967292368412,-0.005382554605603218,-0.030864933505654335,67.78830841666422
2025-10-03 16:05:00.548616,-2.060148613750935,-0.21470223046839237,9.58883666932583,67.78830841666422,-0.04926469221711159,-0.0987459689565003,0.08599441587924958,67.78830841666422,-2.11480224609375,-0.3129991149902344,9.674681396484376,67.78830841666422,-0.0009922967292368412,-0.005382554605603218,-0.030864933505654335,67.78830841666422
2025-10-03 16:05:00.668448,-2.060148613750935,-0.21470223046839237,9.58883666932583,67.78830841666422,-0.04926469221711159,-0.0987459689565003,0.08599441587924958,67.78830841666422,-2.11480224609375,-0.3129991149902344,9.674681396484376,67.78830841666422,-0.0009922967292368412,-0.005382554605603218,-0.030864933505654335,67.78830841666422
2025-10-03 16:05:00.796460,-2.060148613750935,-0.21470223046839237,9.58883666932583,67.78830841666422,-0.04926469221711159,-0.0987459689565003,0.08599441587924958,67.78830841666422,-2.11480224609375,-0.3129991149902344,9.674681396484376,67.78830841666422,-0.0009922967292368412,-0.005382554605603218,-0.030864933505654335,67.78830841666422
2025-10-03 16:05:00.919024,-2.060148613750935,-0.21470223046839237,9.58883666932583,67.78830841666422,-0.04926469221711159,-0.0987459689565003,0.08599441587924958,67.78830841666422,-2.11480224609375,-0.3129991149902344,9.674681396484376,67.78830841666422,-0.0009922967292368412,-0.005382554605603218,-0.030864933505654335,67.78830841666422
2025-10-03 16:05:01.053499,-2.060148613750935,-0.21470223046839237,9.58883666932583,67.78830841666422,-0.04926469221711159,-0.0987459689565003,0.08599441587924958,67.78830841666422,-2.11480224609375,-0.3129991149902344,9.674681396484376,67.78830841666422,-0.0009922967292368412,-0.005382554605603218,-0.030864933505654335,67.78830841666422
2025-10-03 16:05:01.187878,-2.060148613750935,-0.21470223046839237,9.58883666932583,67.78830841666422,-0.04926469221711159,-0.0987459689565003,0.08599441587924958,67.78830841666422,-2.11480224609375,-0.3129991149902344,9.674681396484376,67.78830841666422,-0.0009922967292368412,-0.005382554605603218,-0.030864933505654335,67.78830841666422
2025-10-03 16:05:01.310351,-2.060148613750935,-0.21470223046839237,9.58883666932583,67.78830841666422,-0.04926469221711159,-0.0987459689565003,0.08599441587924958,67.78830841666422,-2.11480224609375,-0.3129991149902344,9.674681396484376,67.78830841666422,-0.0009922967292368412,-0.005382554605603218,-0.030864933505654335,67.78830841666422
2025-10-03 16:05:01.449905,-2.060148613750935,-0.21470223046839237,9.58883666932583,67.78830841666422,-0.04926469221711159,-0.0987459689565003,0.08599441587924958,67.78830841666422,-2.11480224609375,-0.3129991149902344,9.674681396484376,67.78830841666422,-0.0009922967292368412,-0.005382554605603218,-0.030864933505654335,67.78830841666422
2025-10-03 16:05:01.590913,-2.060148613750935,-0.21470223046839237,9.58883666932583,67.78830841666422,-0.04926469221711159,-0.0987459689565003,0.08599441587924958,67.78830841666422,-2.11480224609375,-0.3129991149902344,9.674681396484376,67.78830841666422,-0.0009922967292368412,-0.005382554605603218,-0.030864933505654335,67.78830841666422
2025-10-03 16:05:01.724216,-2.060148613750935,-0.21470223046839237,9.58883666932583,67.78830841666422,-0.04926469221711159,-0.0987459689565003,0.08599441587924958,67.78830841666422,-2.11480224609375,-0.3129991149902344,9.674681396484376,67.78830841666422,-0.0009922967292368412,-0.005382554605603218,-0.030864933505654335,67.78830841666422
2025-10-03 16:05:01.849820,-2.060148613750935,-0.21470223046839237,9.58883666932583,67.78830841666422,-0.04926469221711159,-0.0987459689565003,0.08599441587924958,67.78830841666422,-2.11480224609375,-0.3129991149902344,9.674681396484376,67.78830841666422,-0.0009922967292368412,-0.005382554605603218,-0.030864933505654335,67.78830841666422
2025-10-03 16:05:01.976498,-2.060148613750935,-0.21470223046839237,9.58883666932583,67.78830841666422,-0.04926469221711159,-0.0987459689565003,0.08599441587924958,67.78830841666422,-2.11480224609375,-0.3129991149902344,9.674681396484376,67.78830841666422,-0.0009922967292368412,-0.005382554605603218,-0.030864933505654335,67.78830841666422
2025-10-03 16:05:02.110461,-2.060148613750935,-0.21470223046839237,9.58883666932583,67.78830841666422,-0.04926469221711159,-0.0987459689565003,0.08599441587924958,67.78830841666422,-2.11480224609375,-0.3129991149902344,9.674681396484376,67.78830841666422,-0.0009922967292368412,-0.005382554605603218,-0.030864933505654335,67.78830841666422
2025-10-03 16:05:02.253799,-2.060148613750935,-0.21470223046839237,9.58883666932583,67.78830841666422,-0.04926469221711159,-0.0987459689565003,0.08599441587924958,67.78830841666422,-2.11480224609375,-0.3129991149902344,9.674681396484376,67.78830841666422,-0.0009922967292368412,-0.005382554605603218,-0.030864933505654335,67.78830841666422
2025-10-03 16:05:02.381874,-2.060148613750935,-0.21470223046839237,9.58883666932583,67.78830841666422,-0.04926469221711159,-0.0987459689565003,0.08599441587924958,67.78830841666422,-2.11480224609375,-0.3129991149902344,9.674681396484376,67.78830841666422,-0.0009922967292368412,-0.005382554605603218,-0.030864933505654335,67.78830841666422
2025-10-03 16:05:02.527513,-2.060148613750935,-0.21470223046839237,9.58883666932583,67.78830841666422,-0.04926469221711159,-0.0987459689565003,0.08599441587924958,67.78830841666422,-2.11480224609375,-0.3129991149902344,9.674681396484376,67.78830841666422,-0.0009922967292368412,-0.005382554605603218,-0.030864933505654335,67.78830841666422
2025-10-03 16:05:02.658715,-2.060148613750935,-0.21470223046839237,9.58883666932583,67.78830841666422,-0.04926469221711159,-0.0987459689565003,0.08599441587924958,67.78830841666422,-2.11480224609375,-0.3129991149902344,9.674681396484376,67.78830841666422,-0.0009922967292368412,-0.005382554605603218,-0.030864933505654335,67.78830841666422
2025-10-03 16:05:02.785310,-2.060148613750935,-0.21470223046839237,9.58883666932583,67.78830841666422,-0.04926469221711159,-0.0987459689565003,0.08599441587924958,67.78830841666422,-2.11480224609375,-0.3129991149902344,9.674681396484376,67.78830841666422,-0.0009922967292368412,-0.005382554605603218,-0.030864933505654335,67.78830841666422
2025-10-03 16:05:02.927920,-2.060148613750935,-0.21470223046839237,9.58883666932583,67.78830841666422,-0.04926469221711159,-0.0987459689565003,0.08599441587924958,67.78830841666422,-2.11480224609375,-0.3129991149902344,9.674681396484376,67.78830841666422,-0.0009922967292368412,-0.005382554605603218,-0.030864933505654335,67.78830841666422
2025-10-03 16:05:03.052140,-2.060148613750935,-0.21470223046839237,9.58883666932583,67.78830841666422,-0.04926469221711159,-0.0987459689565003,0.08599441587924958,67.78830841666422,-2.11480224609375,-0.3129991149902344,9.674681396484376,67.78830841666422,-0.0009922967292368412,-0.005382554605603218,-0.030864933505654335,67.78830841666422
2025-10-03 16:05:03.182455,-2.060148613750935,-0.21470223046839237,9.58883666932583,67.78830841666422,-0.04926469221711159,-0.0987459689565003,0.08599441587924958,67.78830841666422,-2.11480224609375,-0.3129991149902344,9.674681396484376,67.78830841666422,-0.0009922967292368412,-0.005382554605603218,-0.030864933505654335,67.78830841666422
2025-10-03 16:05:03.310833,-2.060148613750935,-0.21470223046839237,9.58883666932583,67.78830841666422,-0.04926469221711159,-0.0987459689565003,0.08599441587924958,67.78830841666422,-2.11480224609375,-0.3129991149902344,9.674681396484376,67.78830841666422,-0.0009922967292368412,-0.005382554605603218,-0.030864933505654335,67.78830841666422
2025-10-03 16:05:03.443093,-2.060148613750935,-0.21470223046839237,9.58883666932583,67.78830841666422,-0.04926469221711159,-0.0987459689565003,0.08599441587924958,67.78830841666422,-2.11480224609375,-0.3129991149902344,9.674681396484376,67.78830841666422,-0.0009922967292368412,-0.005382554605603218,-0.030864933505654335,67.78830841666422
2025-10-03 16:05:03.589200,-2.060148613750935,-0.21470223046839237,9.58883666932583,67.78830841666422,-0.04926469221711159,-0.0987459689565003,0.08599441587924958,67.78830841666422,-2.11480224609375,-0.3129991149902344,9.674681396484376,67.78830841666422,-0.0009922967292368412,-0.005382554605603218,-0.030864933505654335,67.78830841666422
2025-10-03 16:05:03.713836,-2.060148613750935,-0.21470223046839237,9.58883666932583,67.78830841666422,-0.04926469221711159,-0.0987459689565003,0.08599441587924958,67.78830841666422,-2.11480224609375,-0.3129991149902344,9.674681396484376,67.78830841666422,-0.0009922967292368412,-0.005382554605603218,-0.030864933505654335,67.78830841666422
2025-10-03 16:05:03.839043,-2.060148613750935,-0.21470223046839237,9.58883666932583,67.78830841666422,-0.04926469221711159,-0.0987459689565003,0.08599441587924958,67.78830841666422,-2.11480224609375,-0.3129991149902344,9.674681396484376,67.78830841666422,-0.0009922967292368412,-0.005382554605603218,-0.030864933505654335,67.78830841666422
2025-10-03 16:05:03.974509,-2.060148613750935,-0.21470223046839237,9.58883666932583,67.78830841666422,-0.04926469221711159,-0.0987459689565003,0.08599441587924958,67.78830841666422,-2.11480224609375,-0.3129991149902344,9.674681396484376,67.78830841666422,-0.0009922967292368412,-0.005382554605603218,-0.030864933505654335,67.78830841666422
2025-10-03 16:05:04.097744,-2.060148613750935,-0.21470223046839237,9.58883666932583,67.78830841666422,-0.04926469221711159,-0.0987459689565003,0.08599441587924958,67.78830841666422,-2.11480224609375,-0.3129991149902344,9.674681396484376,67.78830841666422,-0.0009922967292368412,-0.005382554605603218,-0.030864933505654335,67.78830841666422
2025-10-03 16:05:04.247867,-2.060148613750935,-0.21470223046839237,9.58883666932583,67.78830841666422,-0.04926469221711159,-0.0987459689565003,0.08599441587924958,67.78830841666422,-2.11480224609375,-0.3129991149902344,9.674681396484376,67.78830841666422,-0.0009922967292368412,-0.005382554605603218,-0.030864933505654335,67.78830841666422
2025-10-03 16:05:04.381738,-2.060148613750935,-0.21470223046839237,9.58883666932583,67.78830841666422,-0.04926469221711159,-0.0987459689565003,0.08599441587924958,67.78830841666422,-2.11480224609375,-0.3129991149902344,9.674681396484376,67.78830841666422,-0.0009922967292368412,-0.005382554605603218,-0.030864933505654335,67.78830841666422
2025-10-03 16:05:04.508171,-2.060148613750935,-0.21470223046839237,9.58883666932583,67.78830841666422,-0.04926469221711159,-0.0987459689565003,0.08599441587924958,67.78830841666422,-2.11480224609375,-0.3129991149902344,9.674681396484376,67.78830841666422,-0.0009922967292368412,-0.005382554605603218,-0.030864933505654335,67.78830841666422
2025-10-03 16:05:04.656274,-2.060148613750935,-0.21470223046839237,9.58883666932583,67.78830841666422,-0.04926469221711159,-0.0987459689565003,0.08599441587924958,67.78830841666422,-2.11480224609375,-0.3129991149902344,9.674681396484376,67.78830841666422,-0.0009922967292368412,-0.005382554605603218,-0.030864933505654335,67.78830841666422
2025-10-03 16:05:04.830455,-2.060148613750935,-0.21470223046839237,9.58883666932583,67.78830841666422,-0.04926469221711159,-0.0987459689565003,0.08599441587924958,67.78830841666422,-2.11480224609375,-0.3129991149902344,9.674681396484376,67.78830841666422,-0.0009922967292368412,-0.005382554605603218,-0.030864933505654335,67.78830841666422
2025-10-03 16:05:04.967203,-2.060148613750935,-0.21470223046839237,9.58883666932583,67.78830841666422,-0.04926469221711159,-0.0987459689565003,0.08599441587924958,67.78830841666422,-2.11480224609375,-0.3129991149902344,9.674681396484376,67.78830841666422,-0.0009922967292368412,-0.005382554605603218,-0.030864933505654335,67.78830841666422
2025-10-03 16:05:05.083876,-2.060148613750935,-0.21470223046839237,9.58883666932583,67.78830841666422,-0.04926469221711159,-0.0987459689565003,0.08599441587924958,67.78830841666422,-2.11480224609375,-0.3129991149902344,9.674681396484376,67.78830841666422,-0.0009922967292368412,-0.005382554605603218,-0.030864933505654335,67.78830841666422
2025-10-03 16:05:05.207411,-2.060148613750935,-0.21470223046839237,9.58883666932583,67.78830841666422,-0.04926469221711159,-0.0987459689565003,0.08599441587924958,67.78830841666422,-2.11480224609375,-0.3129991149902344,9.674681396484376,67.78830841666422,-0.0009922967292368412,-0.005382554605603218,-0.030864933505654335,67.78830841666422
2025-10-03 16:05:05.336439,-2.060148613750935,-0.21470223046839237,9.58883666932583,67.78830841666422,-0.04926469221711159,-0.0987459689565003,0.08599441587924958,67.78830841666422,-2.11480224609375,-0.3129991149902344,9.674681396484376,67.78830841666422,-0.0009922967292368412,-0.005382554605603218,-0.030864933505654335,67.78830841666422
2025-10-03 16:05:05.470196,-2.060148613750935,-0.21470223046839237,9.58883666932583,67.78830841666422,-0.04926469221711159,-0.0987459689565003,0.08599441587924958,67.78830841666422,-2.11480224609375,-0.3129991149902344,9.674681396484376,67.78830841666422,-0.0009922967292368412,-0.005382554605603218,-0.030864933505654335,67.78830841666422
2025-10-03 16:05:05.606157,-2.060148613750935,-0.21470223046839237,9.58883666932583,67.78830841666422,-0.04926469221711159,-0.0987459689565003,0.08599441587924958,67.78830841666422,-2.11480224609375,-0.3129991149902344,9.674681396484376,67.78830841666422,-0.0009922967292368412,-0.005382554605603218,-0.030864933505654335,67.78830841666422
2025-10-03 16:05:05.735843,-2.060148613750935,-0.21470223046839237,9.58883666932583,67.78830841666422,-0.04926469221711159,-0.0987459689565003,0.08599441587924958,67.78830841666422,-2.11480224609375,-0.3129991149902344,9.674681396484376,67.78830841666422,-0.0009922967292368412,-0.005382554605603218,-0.030864933505654335,67.78830841666422
2025-10-03 16:05:05.866288,-2.060148613750935,-0.21470223046839237,9.58883666932583,67.78830841666422,-0.04926469221711159,-0.0987459689565003,0.08599441587924958,67.78830841666422,-2.11480224609375,-0.3129991149902344,9.674681396484376,67.78830841666422,-0.0009922967292368412,-0.005382554605603218,-0.030864933505654335,67.78830841666422
2025-10-03 16:05:05.995008,-2.060148613750935,-0.21470223046839237,9.58883666932583,67.78830841666422,-0.04926469221711159,-0.0987459689565003,0.08599441587924958,67.78830841666422,-2.11480224609375,-0.3129991149902344,9.674681396484376,67.78830841666422,-0.0009922967292368412,-0.005382554605603218,-0.030864933505654335,67.78830841666422
2025-10-03 16:05:06.118292,-2.060148613750935,-0.21470223046839237,9.58883666932583,67.78830841666422,-0.04926469221711159,-0.0987459689565003,0.08599441587924958,67.78830841666422,-2.11480224609375,-0.3129991149902344,9.674681396484376,67.78830841666422,-0.0009922967292368412,-0.005382554605603218,-0.030864933505654335,67.78830841666422
2025-10-03 16:05:06.250260,-2.060148613750935,-0.21470223046839237,9.58883666932583,67.78830841666422,-0.04926469221711159,-0.0987459689565003,0.08599441587924958,67.78830841666422,-2.11480224609375,-0.3129991149902344,9.674681396484376,67.78830841666422,-0.0009922967292368412,-0.005382554605603218,-0.030864933505654335,67.78830841666422
2025-10-03 16:05:06.371866,-2.060148613750935,-0.21470223046839237,9.58883666932583,67.78830841666422,-0.04926469221711159,-0.0987459689565003,0.08599441587924958,67.78830841666422,-2.11480224609375,-0.3129991149902344,9.674681396484376,67.78830841666422,-0.0009922967292368412,-0.005382554605603218,-0.030864933505654335,67.78830841666422
2025-10-03 16:05:06.514465,-2.060148613750935,-0.21470223046839237,9.58883666932583,67.78830841666422,-0.04926469221711159,-0.0987459689565003,0.08599441587924958,67.78830841666422,-2.11480224609375,-0.3129991149902344,9.674681396484376,67.78830841666422,-0.0009922967292368412,-0.005382554605603218,-0.030864933505654335,67.78830841666422
2025-10-03 16:05:06.644083,-2.060148613750935,-0.21470223046839237,9.58883666932583,67.78830841666422,-0.04926469221711159,-0.0987459689565003,0.08599441587924958,67.78830841666422,-2.11480224609375,-0.3129991149902344,9.674681396484376,67.78830841666422,-0.0009922967292368412,-0.005382554605603218,-0.030864933505654335,67.78830841666422
2025-10-03 16:05:06.770448,-2.060148613750935,-0.21470223046839237,9.58883666932583,67.78830841666422,-0.04926469221711159,-0.0987459689565003,0.08599441587924958,67.78830841666422,-2.11480224609375,-0.3129991149902344,9.674681396484376,67.78830841666422,-0.0009922967292368412,-0.005382554605603218,-0.030864933505654335,67.78830841666422
2025-10-03 16:05:06.907041,-2.060148613750935,-0.21470223046839237,9.58883666932583,67.78830841666422,-0.04926469221711159,-0.0987459689565003,0.08599441587924958,67.78830841666422,-2.11480224609375,-0.3129991149902344,9.674681396484376,67.78830841666422,-0.0009922967292368412,-0.005382554605603218,-0.030864933505654335,67.78830841666422
2025-10-03 16:05:07.037073,-2.060148613750935,-0.21470223046839237,9.58883666932583,67.78830841666422,-0.04926469221711159,-0.0987459689565003,0.08599441587924958,67.78830841666422,-2.11480224609375,-0.3129991149902344,9.674681396484376,67.78830841666422,-0.0009922967292368412,-0.005382554605603218,-0.030864933505654335,67.78830841666422
2025-10-03 16:05:07.170902,-2.060148613750935,-0.21470223046839237,9.58883666932583,67.78830841666422,-0.04926469221711159,-0.0987459689565003,0.08599441587924958,67.78830841666422,-2.11480224609375,-0.3129991149902344,9.674681396484376,67.78830841666422,-0.0009922967292368412,-0.005382554605603218,-0.030864933505654335,67.78830841666422
2025-10-03 16:05:07.318377,-2.060148613750935,-0.21470223046839237,9.58883666932583,67.78830841666422,-0.04926469221711159,-0.0987459689565003,0.08599441587924958,67.78830841666422,-2.11480224609375,-0.3129991149902344,9.674681396484376,67.78830841666422,-0.0009922967292368412,-0.005382554605603218,-0.030864933505654335,67.78830841666422
2025-10-03 16:05:07.444439,-2.060148613750935,-0.21470223046839237,9.58883666932583,67.78830841666422,-0.04926469221711159,-0.0987459689565003,0.08599441587924958,67.78830841666422,-2.11480224609375,-0.3129991149902344,9.674681396484376,67.78830841666422,-0.0009922967292368412,-0.005382554605603218,-0.030864933505654335,67.78830841666422
2025-10-03 16:05:07.577293,-2.060148613750935,-0.21470223046839237,9.58883666932583,67.78830841666422,-0.04926469221711159,-0.0987459689565003,0.08599441587924958,67.78830841666422,-2.11480224609375,-0.3129991149902344,9.674681396484376,67.78830841666422,-0.0009922967292368412,-0.005382554605603218,-0.030864933505654335,67.78830841666422
2025-10-03 16:05:07.723698,-2.060148613750935,-0.21470223046839237,9.58883666932583,67.78830841666422,-0.04926469221711159,-0.0987459689565003,0.08599441587924958,67.78830841666422,-2.11480224609375,-0.3129991149902344,9.674681396484376,67.78830841666422,-0.0009922967292368412,-0.005382554605603218,-0.030864933505654335,67.78830841666422
2025-10-03 16:05:07.852519,-2.060148613750935,-0.21470223046839237,9.58883666932583,67.78830841666422,-0.04926469221711159,-0.0987459689565003,0.08599441587924958,67.78830841666422,-2.11480224609375,-0.3129991149902344,9.674681396484376,67.78830841666422,-0.0009922967292368412,-0.005382554605603218,-0.030864933505654335,67.78830841666422
2025-10-03 16:05:07.982239,-2.060148613750935,-0.21470223046839237,9.58883666932583,67.78830841666422,-0.04926469221711159,-0.0987459689565003,0.08599441587924958,67.78830841666422,-2.11480224609375,-0.3129991149902344,9.674681396484376,67.78830841666422,-0.0009922967292368412,-0.005382554605603218,-0.030864933505654335,67.78830841666422
2025-10-03 16:05:08.123413,-2.060148613750935,-0.21470223046839237,9.58883666932583,67.78830841666422,-0.04926469221711159,-0.0987459689565003,0.08599441587924958,67.78830841666422,-2.11480224609375,-0.3129991149902344,9.674681396484376,67.78830841666422,-0.0009922967292368412,-0.005382554605603218,-0.030864933505654335,67.78830841666422
2025-10-03 16:05:08.251827,-2.060148613750935,-0.21470223046839237,9.58883666932583,67.78830841666422,-0.04926469221711159,-0.0987459689565003,0.08599441587924958,67.78830841666422,-2.11480224609375,-0.3129991149902344,9.674681396484376,67.78830841666422,-0.0009922967292368412,-0.005382554605603218,-0.030864933505654335,67.78830841666422
2025-10-03 16:05:08.380310,-2.060148613750935,-0.21470223046839237,9.58883666932583,67.78830841666422,-0.04926469221711159,-0.0987459689565003,0.08599441587924958,67.78830841666422,-2.11480224609375,-0.3129991149902344,9.674681396484376,67.78830841666422,-0.0009922967292368412,-0.005382554605603218,-0.030864933505654335,67.78830841666422
2025-10-03 16:05:08.507995,-2.060148613750935,-0.21470223046839237,9.58883666932583,67.78830841666422,-0.04926469221711159,-0.0987459689565003,0.08599441587924958,67.78830841666422,-2.11480224609375,-0.3129991149902344,9.674681396484376,67.78830841666422,-0.0009922967292368412,-0.005382554605603218,-0.030864933505654335,67.78830841666422
2025-10-03 16:05:08.642573,-2.060148613750935,-0.21470223046839237,9.58883666932583,67.78830841666422,-0.04926469221711159,-0.0987459689565003,0.08599441587924958,67.78830841666422,-2.11480224609375,-0.3129991149902344,9.674681396484376,67.78830841666422,-0.0009922967292368412,-0.005382554605603218,-0.030864933505654335,67.78830841666422
2025-10-03 16:05:08.779853,-2.060148613750935,-0.21470223046839237,9.58883666932583,67.78830841666422,-0.04926469221711159,-0.0987459689565003,0.08599441587924958,67.78830841666422,-2.11480224609375,-0.3129991149902344,9.674681396484376,67.78830841666422,-0.0009922967292368412,-0.005382554605603218,-0.030864933505654335,67.78830841666422
2025-10-03 16:05:08.916846,-2.060148613750935,-0.21470223046839237,9.58883666932583,67.78830841666422,-0.04926469221711159,-0.0987459689565003,0.08599441587924958,67.78830841666422,-2.11480224609375,-0.3129991149902344,9.674681396484376,67.78830841666422,-0.0009922967292368412,-0.005382554605603218,-0.030864933505654335,67.78830841666422
2025-10-03 16:05:09.043395,-2.060148613750935,-0.21470223046839237,9.58883666932583,67.78830841666422,-0.04926469221711159,-0.0987459689565003,0.08599441587924958,67.78830841666422,-2.11480224609375,-0.3129991149902344,9.674681396484376,67.78830841666422,-0.0009922967292368412,-0.005382554605603218,-0.030864933505654335,67.78830841666422
2025-10-03 16:05:09.180409,-2.060148613750935,-0.21470223046839237,9.58883666932583,67.78830841666422,-0.04926469221711159,-0.0987459689565003,0.08599441587924958,67.78830841666422,-2.11480224609375,-0.3129991149902344,9.674681396484376,67.78830841666422,-0.0009922967292368412,-0.005382554605603218,-0.030864933505654335,67.78830841666422
2025-10-03 16:05:09.302763,-2.060148613750935,-0.21470223046839237,9.58883666932583,67.78830841666422,-0.04926469221711159,-0.0987459689565003,0.08599441587924958,67.78830841666422,-2.11480224609375,-0.3129991149902344,9.674681396484376,67.78830841666422,-0.0009922967292368412,-0.005382554605603218,-0.030864933505654335,67.78830841666422
2025-10-03 16:05:09.442885,-2.060148613750935,-0.21470223046839237,9.58883666932583,67.78830841666422,-0.04926469221711159,-0.0987459689565003,0.08599441587924958,67.78830841666422,-2.11480224609375,-0.3129991149902344,9.674681396484376,67.78830841666422,-0.0009922967292368412,-0.005382554605603218,-0.030864933505654335,67.78830841666422
2025-10-03 16:05:09.575404,-2.060148613750935,-0.21470223046839237,9.58883666932583,67.78830841666422,-0.04926469221711159,-0.0987459689565003,0.08599441587924958,67.78830841666422,-2.11480224609375,-0.3129991149902344,9.674681396484376,67.78830841666422,-0.0009922967292368412,-0.005382554605603218,-0.030864933505654335,67.78830841666422
2025-10-03 16:05:09.719851,-2.060148613750935,-0.21470223046839237,9.58883666932583,67.78830841666422,-0.04926469221711159,-0.0987459689565003,0.08599441587924958,67.78830841666422,-2.11480224609375,-0.3129991149902344,9.674681396484376,67.78830841666422,-0.0009922967292368412,-0.005382554605603218,-0.030864933505654335,67.78830841666422
2025-10-03 16:05:09.843952,-2.060148613750935,-0.21470223046839237,9.58883666932583,67.78830841666422,-0.04926469221711159,-0.0987459689565003,0.08599441587924958,67.78830841666422,-2.11480224609375,-0.3129991149902344,9.674681396484376,67.78830841666422,-0.0009922967292368412,-0.005382554605603218,-0.030864933505654335,67.78830841666422
2025-10-03 16:05:09.991985,-2.060148613750935,-0.21470223046839237,9.58883666932583,67.78830841666422,-0.04926469221711159,-0.0987459689565003,0.08599441587924958,67.78830841666422,-2.11480224609375,-0.3129991149902344,9.674681396484376,67.78830841666422,-0.0009922967292368412,-0.005382554605603218,-0.030864933505654335,67.78830841666422
2025-10-03 16:05:10.119397,-2.060148613750935,-0.21470223046839237,9.58883666932583,67.78830841666422,-0.04926469221711159,-0.0987459689565003,0.08599441587924958,67.78830841666422,-2.11480224609375,-0.3129991149902344,9.674681396484376,67.78830841666422,-0.0009922967292368412,-0.005382554605603218,-0.030864933505654335,67.78830841666422
2025-10-03 16:05:10.255271,-2.060148613750935,-0.21470223046839237,9.58883666932583,67.78830841666422,-0.04926469221711159,-0.0987459689565003,0.08599441587924958,67.78830841666422,-2.11480224609375,-0.3129991149902344,9.674681396484376,67.78830841666422,-0.0009922967292368412,-0.005382554605603218,-0.030864933505654335,67.78830841666422
2025-10-03 16:05:10.415967,-2.060148613750935,-0.21470223046839237,9.58883666932583,67.78830841666422,-0.04926469221711159,-0.0987459689565003,0.08599441587924958,67.78830841666422,-2.11480224609375,-0.3129991149902344,9.674681396484376,67.78830841666422,-0.0009922967292368412,-0.005382554605603218,-0.030864933505654335,67.78830841666422
2025-10-03 16:05:10.536567,-2.060148613750935,-0.21470223046839237,9.58883666932583,67.78830841666422,-0.04926469221711159,-0.0987459689565003,0.08599441587924958,67.78830841666422,-2.11480224609375,-0.3129991149902344,9.674681396484376,67.78830841666422,-0.0009922967292368412,-0.005382554605603218,-0.030864933505654335,67.78830841666422
2025-10-03 16:05:10.668656,-2.060148613750935,-0.21470223046839237,9.58883666932583,67.78830841666422,-0.04926469221711159,-0.0987459689565003,0.08599441587924958,67.78830841666422,-2.11480224609375,-0.3129991149902344,9.674681396484376,67.78830841666422,-0.0009922967292368412,-0.005382554605603218,-0.030864933505654335,67.78830841666422
2025-10-03 16:05:10.792358,-2.060148613750935,-0.21470223046839237,9.58883666932583,67.78830841666422,-0.04926469221711159,-0.0987459689565003,0.08599441587924958,67.78830841666422,-2.11480224609375,-0.3129991149902344,9.674681396484376,67.78830841666422,-0.0009922967292368412,-0.005382554605603218,-0.030864933505654335,67.78830841666422
2025-10-03 16:05:10.921797,-2.060148613750935,-0.21470223046839237,9.58883666932583,67.78830841666422,-0.04926469221711159,-0.0987459689565003,0.08599441587924958,67.78830841666422,-2.11480224609375,-0.3129991149902344,9.674681396484376,67.78830841666422,-0.0009922967292368412,-0.005382554605603218,-0.030864933505654335,67.78830841666422
2025-10-03 16:05:11.052792,-2.060148613750935,-0.21470223046839237,9.58883666932583,67.78830841666422,-0.04926469221711159,-0.0987459689565003,0.08599441587924958,67.78830841666422,-2.11480224609375,-0.3129991149902344,9.674681396484376,67.78830841666422,-0.0009922967292368412,-0.005382554605603218,-0.030864933505654335,67.78830841666422
2025-10-03 16:05:11.178512,-2.060148613750935,-0.21470223046839237,9.58883666932583,67.78830841666422,-0.04926469221711159,-0.0987459689565003,0.08599441587924958,67.78830841666422,-2.11480224609375,-0.3129991149902344,9.674681396484376,67.78830841666422,-0.0009922967292368412,-0.005382554605603218,-0.030864933505654335,67.78830841666422
2025-10-03 16:05:11.302104,-2.060148613750935,-0.21470223046839237,9.58883666932583,67.78830841666422,-0.04926469221711159,-0.0987459689565003,0.08599441587924958,67.78830841666422,-2.11480224609375,-0.3129991149902344,9.674681396484376,67.78830841666422,-0.0009922967292368412,-0.005382554605603218,-0.030864933505654335,67.78830841666422
2025-10-03 16:05:11.430537,-2.060148613750935,-0.21470223046839237,9.58883666932583,67.78830841666422,-0.04926469221711159,-0.0987459689565003,0.08599441587924958,67.78830841666422,-2.11480224609375,-0.3129991149902344,9.674681396484376,67.78830841666422,-0.0009922967292368412,-0.005382554605603218,-0.030864933505654335,67.78830841666422
2025-10-03 16:05:11.555005,-2.060148613750935,-0.21470223046839237,9.58883666932583,67.78830841666422,-0.04926469221711159,-0.0987459689565003,0.08599441587924958,67.78830841666422,-2.11480224609375,-0.3129991149902344,9.674681396484376,67.78830841666422,-0.0009922967292368412,-0.005382554605603218,-0.030864933505654335,67.78830841666422
2025-10-03 16:05:11.689281,-2.060148613750935,-0.21470223046839237,9.58883666932583,67.78830841666422,-0.04926469221711159,-0.0987459689565003,0.08599441587924958,67.78830841666422,-2.11480224609375,-0.3129991149902344,9.674681396484376,67.78830841666422,-0.0009922967292368412,-0.005382554605603218,-0.030864933505654335,67.78830841666422
2025-10-03 16:05:11.808897,-2.060148613750935,-0.21470223046839237,9.58883666932583,67.78830841666422,-0.04926469221711159,-0.0987459689565003,0.08599441587924958,67.78830841666422,-2.11480224609375,-0.3129991149902344,9.674681396484376,67.78830841666422,-0.0009922967292368412,-0.005382554605603218,-0.030864933505654335,67.78830841666422
2025-10-03 16:05:11.954045,-2.060148613750935,-0.21470223046839237,9.58883666932583,67.78830841666422,-0.04926469221711159,-0.0987459689565003,0.08599441587924958,67.78830841666422,-2.11480224609375,-0.3129991149902344,9.674681396484376,67.78830841666422,-0.0009922967292368412,-0.005382554605603218,-0.030864933505654335,67.78830841666422
2025-10-03 16:05:12.093209,-2.060148613750935,-0.21470223046839237,9.58883666932583,67.78830841666422,-0.04926469221711159,-0.0987459689565003,0.08599441587924958,67.78830841666422,-2.11480224609375,-0.3129991149902344,9.674681396484376,67.78830841666422,-0.0009922967292368412,-0.005382554605603218,-0.030864933505654335,67.78830841666422
2025-10-03 16:05:12.222337,-2.060148613750935,-0.21470223046839237,9.58883666932583,67.78830841666422,-0.04926469221711159,-0.0987459689565003,0.08599441587924958,67.78830841666422,-2.11480224609375,-0.3129991149902344,9.674681396484376,67.78830841666422,-0.0009922967292368412,-0.005382554605603218,-0.030864933505654335,67.78830841666422
2025-10-03 16:05:12.342094,-2.060148613750935,-0.21470223046839237,9.58883666932583,67.78830841666422,-0.04926469221711159,-0.0987459689565003,0.08599441587924958,67.78830841666422,-2.11480224609375,-0.3129991149902344,9.674681396484376,67.78830841666422,-0.0009922967292368412,-0.005382554605603218,-0.030864933505654335,67.78830841666422
2025-10-03 16:05:12.470582,-2.060148613750935,-0.21470223046839237,9.58883666932583,67.78830841666422,-0.04926469221711159,-0.0987459689565003,0.08599441587924958,67.78830841666422,-2.11480224609375,-0.3129991149902344,9.674681396484376,67.78830841666422,-0.0009922967292368412,-0.005382554605603218,-0.030864933505654335,67.78830841666422
2025-10-03 16:05:12.594721,-2.060148613750935,-0.21470223046839237,9.58883666932583,67.78830841666422,-0.04926469221711159,-0.0987459689565003,0.08599441587924958,67.78830841666422,-2.11480224609375,-0.3129991149902344,9.674681396484376,67.78830841666422,-0.0009922967292368412,-0.005382554605603218,-0.030864933505654335,67.78830841666422
2025-10-03 16:05:12.726389,-2.060148613750935,-0.21470223046839237,9.58883666932583,67.78830841666422,-0.04926469221711159,-0.0987459689565003,0.08599441587924958,67.78830841666422,-2.11480224609375,-0.3129991149902344,9.674681396484376,67.78830841666422,-0.0009922967292368412,-0.005382554605603218,-0.030864933505654335,67.78830841666422
2025-10-03 16:05:12.860409,-2.060148613750935,-0.21470223046839237,9.58883666932583,67.78830841666422,-0.04926469221711159,-0.0987459689565003,0.08599441587924958,67.78830841666422,-2.11480224609375,-0.3129991149902344,9.674681396484376,67.78830841666422,-0.0009922967292368412,-0.005382554605603218,-0.030864933505654335,67.78830841666422
2025-10-03 16:05:12.982126,-2.060148613750935,-0.21470223046839237,9.58883666932583,67.78830841666422,-0.04926469221711159,-0.0987459689565003,0.08599441587924958,67.78830841666422,-2.11480224609375,-0.3129991149902344,9.674681396484376,67.78830841666422,-0.0009922967292368412,-0.005382554605603218,-0.030864933505654335,67.78830841666422
2025-10-03 16:05:13.110864,-2.060148613750935,-0.21470223046839237,9.58883666932583,67.78830841666422,-0.04926469221711159,-0.0987459689565003,0.08599441587924958,67.78830841666422,-2.11480224609375,-0.3129991149902344,9.674681396484376,67.78830841666422,-0.0009922967292368412,-0.005382554605603218,-0.030864933505654335,67.78830841666422
2025-10-03 16:05:13.237126,-2.060148613750935,-0.21470223046839237,9.58883666932583,67.78830841666422,-0.04926469221711159,-0.0987459689565003,0.08599441587924958,67.78830841666422,-2.11480224609375,-0.3129991149902344,9.674681396484376,67.78830841666422,-0.0009922967292368412,-0.005382554605603218,-0.030864933505654335,67.78830841666422
2025-10-03 16:05:13.368672,-2.060148613750935,-0.21470223046839237,9.58883666932583,67.78830841666422,-0.04926469221711159,-0.0987459689565003,0.08599441587924958,67.78830841666422,-2.11480224609375,-0.3129991149902344,9.674681396484376,67.78830841666422,-0.0009922967292368412,-0.005382554605603218,-0.030864933505654335,67.78830841666422
2025-10-03 16:05:13.489333,-2.060148613750935,-0.21470223046839237,9.58883666932583,67.78830841666422,-0.04926469221711159,-0.0987459689565003,0.08599441587924958,67.78830841666422,-2.11480224609375,-0.3129991149902344,9.674681396484376,67.78830841666422,-0.0009922967292368412,-0.005382554605603218,-0.030864933505654335,67.78830841666422
2025-10-03 16:05:13.604788,-2.060148613750935,-0.21470223046839237,9.58883666932583,67.78830841666422,-0.04926469221711159,-0.0987459689565003,0.08599441587924958,67.78830841666422,-2.11480224609375,-0.3129991149902344,9.674681396484376,67.78830841666422,-0.0009922967292368412,-0.005382554605603218,-0.030864933505654335,67.78830841666422
2025-10-03 16:05:13.734593,-2.060148613750935,-0.21470223046839237,9.58883666932583,67.78830841666422,-0.04926469221711159,-0.0987459689565003,0.08599441587924958,67.78830841666422,-2.11480224609375,-0.3129991149902344,9.674681396484376,67.78830841666422,-0.0009922967292368412,-0.005382554605603218,-0.030864933505654335,67.78830841666422
2025-10-03 16:05:13.857080,-2.060148613750935,-0.21470223046839237,9.58883666932583,67.78830841666422,-0.04926469221711159,-0.0987459689565003,0.08599441587924958,67.78830841666422,-2.11480224609375,-0.3129991149902344,9.674681396484376,67.78830841666422,-0.0009922967292368412,-0.005382554605603218,-0.030864933505654335,67.78830841666422
2025-10-03 16:05:13.976180,-2.060148613750935,-0.21470223046839237,9.58883666932583,67.78830841666422,-0.04926469221711159,-0.0987459689565003,0.08599441587924958,67.78830841666422,-2.11480224609375,-0.3129991149902344,9.674681396484376,67.78830841666422,-0.0009922967292368412,-0.005382554605603218,-0.030864933505654335,67.78830841666422
2025-10-03 16:05:14.104753,-2.060148613750935,-0.21470223046839237,9.58883666932583,67.78830841666422,-0.04926469221711159,-0.0987459689565003,0.08599441587924958,67.78830841666422,-2.11480224609375,-0.3129991149902344,9.674681396484376,67.78830841666422,-0.0009922967292368412,-0.005382554605603218,-0.030864933505654335,67.78830841666422
2025-10-03 16:05:14.234560,-2.060148613750935,-0.21470223046839237,9.58883666932583,67.78830841666422,-0.04926469221711159,-0.0987459689565003,0.08599441587924958,67.78830841666422,-2.11480224609375,-0.3129991149902344,9.674681396484376,67.78830841666422,-0.0009922967292368412,-0.005382554605603218,-0.030864933505654335,67.78830841666422
2025-10-03 16:05:14.373314,-2.060148613750935,-0.21470223046839237,9.58883666932583,67.78830841666422,-0.04926469221711159,-0.0987459689565003,0.08599441587924958,67.78830841666422,-2.11480224609375,-0.3129991149902344,9.674681396484376,67.78830841666422,-0.0009922967292368412,-0.005382554605603218,-0.030864933505654335,67.78830841666422
2025-10-03 16:05:14.505178,-2.060148613750935,-0.21470223046839237,9.58883666932583,67.78830841666422,-0.04926469221711159,-0.0987459689565003,0.08599441587924958,67.78830841666422,-2.11480224609375,-0.3129991149902344,9.674681396484376,67.78830841666422,-0.0009922967292368412,-0.005382554605603218,-0.030864933505654335,67.78830841666422
2025-10-03 16:05:14.645489,-2.060148613750935,-0.21470223046839237,9.58883666932583,67.78830841666422,-0.04926469221711159,-0.0987459689565003,0.08599441587924958,67.78830841666422,-2.11480224609375,-0.3129991149902344,9.674681396484376,67.78830841666422,-0.0009922967292368412,-0.005382554605603218,-0.030864933505654335,67.78830841666422
2025-10-03 16:05:14.785819,-2.060148613750935,-0.21470223046839237,9.58883666932583,67.78830841666422,-0.04926469221711159,-0.0987459689565003,0.08599441587924958,67.78830841666422,-2.11480224609375,-0.3129991149902344,9.674681396484376,67.78830841666422,-0.0009922967292368412,-0.005382554605603218,-0.030864933505654335,67.78830841666422
2025-10-03 16:05:14.930470,-2.060148613750935,-0.21470223046839237,9.58883666932583,67.78830841666422,-0.04926469221711159,-0.0987459689565003,0.08599441587924958,67.78830841666422,-2.11480224609375,-0.3129991149902344,9.674681396484376,67.78830841666422,-0.0009922967292368412,-0.005382554605603218,-0.030864933505654335,67.78830841666422
2025-10-03 16:05:15.052759,-2.060148613750935,-0.21470223046839237,9.58883666932583,67.78830841666422,-0.04926469221711159,-0.0987459689565003,0.08599441587924958,67.78830841666422,-2.11480224609375,-0.3129991149902344,9.674681396484376,67.78830841666422,-0.0009922967292368412,-0.005382554605603218,-0.030864933505654335,67.78830841666422
2025-10-03 16:05:15.183538,-2.060148613750935,-0.21470223046839237,9.58883666932583,67.78830841666422,-0.04926469221711159,-0.0987459689565003,0.08599441587924958,67.78830841666422,-2.11480224609375,-0.3129991149902344,9.674681396484376,67.78830841666422,-0.0009922967292368412,-0.005382554605603218,-0.030864933505654335,67.78830841666422
2025-10-03 16:05:15.320620,-2.060148613750935,-0.21470223046839237,9.58883666932583,67.78830841666422,-0.04926469221711159,-0.0987459689565003,0.08599441587924958,67.78830841666422,-2.11480224609375,-0.3129991149902344,9.674681396484376,67.78830841666422,-0.0009922967292368412,-0.005382554605603218,-0.030864933505654335,67.78830841666422
2025-10-03 16:05:15.445062,-2.060148613750935,-0.21470223046839237,9.58883666932583,67.78830841666422,-0.04926469221711159,-0.0987459689565003,0.08599441587924958,67.78830841666422,-2.11480224609375,-0.3129991149902344,9.674681396484376,67.78830841666422,-0.0009922967292368412,-0.005382554605603218,-0.030864933505654335,67.78830841666422
2025-10-03 16:05:15.568679,-2.060148613750935,-0.21470223046839237,9.58883666932583,67.78830841666422,-0.04926469221711159,-0.0987459689565003,0.08599441587924958,67.78830841666422,-2.11480224609375,-0.3129991149902344,9.674681396484376,67.78830841666422,-0.0009922967292368412,-0.005382554605603218,-0.030864933505654335,67.78830841666422
2025-10-03 16:05:15.707402,-2.060148613750935,-0.21470223046839237,9.58883666932583,67.78830841666422,-0.04926469221711159,-0.0987459689565003,0.08599441587924958,67.78830841666422,-2.11480224609375,-0.3129991149902344,9.674681396484376,67.78830841666422,-0.0009922967292368412,-0.005382554605603218,-0.030864933505654335,67.78830841666422
2025-10-03 16:05:15.830802,-2.060148613750935,-0.21470223046839237,9.58883666932583,67.78830841666422,-0.04926469221711159,-0.0987459689565003,0.08599441587924958,67.78830841666422,-2.11480224609375,-0.3129991149902344,9.674681396484376,67.78830841666422,-0.0009922967292368412,-0.005382554605603218,-0.030864933505654335,67.78830841666422
2025-10-03 16:05:15.955865,-2.060148613750935,-0.21470223046839237,9.58883666932583,67.78830841666422,-0.04926469221711159,-0.0987459689565003,0.08599441587924958,67.78830841666422,-2.11480224609375,-0.3129991149902344,9.674681396484376,67.78830841666422,-0.0009922967292368412,-0.005382554605603218,-0.030864933505654335,67.78830841666422
2025-10-03 16:05:16.102560,-2.060148613750935,-0.21470223046839237,9.58883666932583,67.78830841666422,-0.04926469221711159,-0.0987459689565003,0.08599441587924958,67.78830841666422,-2.11480224609375,-0.3129991149902344,9.674681396484376,67.78830841666422,-0.0009922967292368412,-0.005382554605603218,-0.030864933505654335,67.78830841666422
2025-10-03 16:05:16.227460,-2.060148613750935,-0.21470223046839237,9.58883666932583,67.78830841666422,-0.04926469221711159,-0.0987459689565003,0.08599441587924958,67.78830841666422,-2.11480224609375,-0.3129991149902344,9.674681396484376,67.78830841666422,-0.0009922967292368412,-0.005382554605603218,-0.030864933505654335,67.78830841666422
2025-10-03 16:05:16.357079,-2.060148613750935,-0.21470223046839237,9.58883666932583,67.78830841666422,-0.04926469221711159,-0.0987459689565003,0.08599441587924958,67.78830841666422,-2.11480224609375,-0.3129991149902344,9.674681396484376,67.78830841666422,-0.0009922967292368412,-0.005382554605603218,-0.030864933505654335,67.78830841666422
2025-10-03 16:05:16.482111,-2.060148613750935,-0.21470223046839237,9.58883666932583,67.78830841666422,-0.04926469221711159,-0.0987459689565003,0.08599441587924958,67.78830841666422,-2.11480224609375,-0.3129991149902344,9.674681396484376,67.78830841666422,-0.0009922967292368412,-0.005382554605603218,-0.030864933505654335,67.78830841666422
2025-10-03 16:05:16.613588,-2.060148613750935,-0.21470223046839237,9.58883666932583,67.78830841666422,-0.04926469221711159,-0.0987459689565003,0.08599441587924958,67.78830841666422,-2.11480224609375,-0.3129991149902344,9.674681396484376,67.78830841666422,-0.0009922967292368412,-0.005382554605603218,-0.030864933505654335,67.78830841666422
2025-10-03 16:05:16.737598,-2.060148613750935,-0.21470223046839237,9.58883666932583,67.78830841666422,-0.04926469221711159,-0.0987459689565003,0.08599441587924958,67.78830841666422,-2.11480224609375,-0.3129991149902344,9.674681396484376,67.78830841666422,-0.0009922967292368412,-0.005382554605603218,-0.030864933505654335,67.78830841666422
2025-10-03 16:05:16.864909,-2.060148613750935,-0.21470223046839237,9.58883666932583,67.78830841666422,-0.04926469221711159,-0.0987459689565003,0.08599441587924958,67.78830841666422,-2.11480224609375,-0.3129991149902344,9.674681396484376,67.78830841666422,-0.0009922967292368412,-0.005382554605603218,-0.030864933505654335,67.78830841666422
2025-10-03 16:05:17.000563,-2.060148613750935,-0.21470223046839237,9.58883666932583,67.78830841666422,-0.04926469221711159,-0.0987459689565003,0.08599441587924958,67.78830841666422,-2.11480224609375,-0.3129991149902344,9.674681396484376,67.78830841666422,-0.0009922967292368412,-0.005382554605603218,-0.030864933505654335,67.78830841666422
2025-10-03 16:05:17.136725,-2.060148613750935,-0.21470223046839237,9.58883666932583,67.78830841666422,-0.04926469221711159,-0.0987459689565003,0.08599441587924958,67.78830841666422,-2.11480224609375,-0.3129991149902344,9.674681396484376,67.78830841666422,-0.0009922967292368412,-0.005382554605603218,-0.030864933505654335,67.78830841666422
2025-10-03 16:05:17.281424,-2.060148613750935,-0.21470223046839237,9.58883666932583,67.78830841666422,-0.04926469221711159,-0.0987459689565003,0.08599441587924958,67.78830841666422,-2.11480224609375,-0.3129991149902344,9.674681396484376,67.78830841666422,-0.0009922967292368412,-0.005382554605603218,-0.030864933505654335,67.78830841666422
2025-10-03 16:05:17.420728,-2.060148613750935,-0.21470223046839237,9.58883666932583,67.78830841666422,-0.04926469221711159,-0.0987459689565003,0.08599441587924958,67.78830841666422,-2.11480224609375,-0.3129991149902344,9.674681396484376,67.78830841666422,-0.0009922967292368412,-0.005382554605603218,-0.030864933505654335,67.78830841666422
2025-10-03 16:05:17.562611,-2.060148613750935,-0.21470223046839237,9.58883666932583,67.78830841666422,-0.04926469221711159,-0.0987459689565003,0.08599441587924958,67.78830841666422,-2.11480224609375,-0.3129991149902344,9.674681396484376,67.78830841666422,-0.0009922967292368412,-0.005382554605603218,-0.030864933505654335,67.78830841666422
2025-10-03 16:05:17.698248,-2.060148613750935,-0.21470223046839237,9.58883666932583,67.78830841666422,-0.04926469221711159,-0.0987459689565003,0.08599441587924958,67.78830841666422,-2.11480224609375,-0.3129991149902344,9.674681396484376,67.78830841666422,-0.0009922967292368412,-0.005382554605603218,-0.030864933505654335,67.78830841666422
2025-10-03 16:05:17.826407,-2.060148613750935,-0.21470223046839237,9.58883666932583,67.78830841666422,-0.04926469221711159,-0.0987459689565003,0.08599441587924958,67.78830841666422,-2.11480224609375,-0.3129991149902344,9.674681396484376,67.78830841666422,-0.0009922967292368412,-0.005382554605603218,-0.030864933505654335,67.78830841666422
2025-10-03 16:05:17.957460,-2.060148613750935,-0.21470223046839237,9.58883666932583,67.78830841666422,-0.04926469221711159,-0.0987459689565003,0.08599441587924958,67.78830841666422,-2.11480224609375,-0.3129991149902344,9.674681396484376,67.78830841666422,-0.0009922967292368412,-0.005382554605603218,-0.030864933505654335,67.78830841666422
2025-10-03 16:05:18.103287,-2.060148613750935,-0.21470223046839237,9.58883666932583,67.78830841666422,-0.04926469221711159,-0.0987459689565003,0.08599441587924958,67.78830841666422,-2.11480224609375,-0.3129991149902344,9.674681396484376,67.78830841666422,-0.0009922967292368412,-0.005382554605603218,-0.030864933505654335,67.78830841666422
2025-10-03 16:05:18.239447,-2.060148613750935,-0.21470223046839237,9.58883666932583,67.78830841666422,-0.04926469221711159,-0.0987459689565003,0.08599441587924958,67.78830841666422,-2.11480224609375,-0.3129991149902344,9.674681396484376,67.78830841666422,-0.0009922967292368412,-0.005382554605603218,-0.030864933505654335,67.78830841666422
2025-10-03 16:05:18.371007,-2.060148613750935,-0.21470223046839237,9.58883666932583,67.78830841666422,-0.04926469221711159,-0.0987459689565003,0.08599441587924958,67.78830841666422,-2.11480224609375,-0.3129991149902344,9.674681396484376,67.78830841666422,-0.0009922967292368412,-0.005382554605603218,-0.030864933505654335,67.78830841666422
2025-10-03 16:05:18.504839,-2.060148613750935,-0.21470223046839237,9.58883666932583,67.78830841666422,-0.04926469221711159,-0.0987459689565003,0.08599441587924958,67.78830841666422,-2.11480224609375,-0.3129991149902344,9.674681396484376,67.78830841666422,-0.0009922967292368412,-0.005382554605603218,-0.030864933505654335,67.78830841666422
2025-10-03 16:05:18.627006,-2.060148613750935,-0.21470223046839237,9.58883666932583,67.78830841666422,-0.04926469221711159,-0.0987459689565003,0.08599441587924958,67.78830841666422,-2.11480224609375,-0.3129991149902344,9.674681396484376,67.78830841666422,-0.0009922967292368412,-0.005382554605603218,-0.030864933505654335,67.78830841666422
2025-10-03 16:05:18.764811,-2.060148613750935,-0.21470223046839237,9.58883666932583,67.78830841666422,-0.04926469221711159,-0.0987459689565003,0.08599441587924958,67.78830841666422,-2.11480224609375,-0.3129991149902344,9.674681396484376,67.78830841666422,-0.0009922967292368412,-0.005382554605603218,-0.030864933505654335,67.78830841666422
2025-10-03 16:05:18.895470,-2.060148613750935,-0.21470223046839237,9.58883666932583,67.78830841666422,-0.04926469221711159,-0.0987459689565003,0.08599441587924958,67.78830841666422,-2.11480224609375,-0.3129991149902344,9.674681396484376,67.78830841666422,-0.0009922967292368412,-0.005382554605603218,-0.030864933505654335,67.78830841666422
2025-10-03 16:05:19.085289,-2.060148613750935,-0.21470223046839237,9.58883666932583,67.78830841666422,-0.04926469221711159,-0.0987459689565003,0.08599441587924958,67.78830841666422,-2.11480224609375,-0.3129991149902344,9.674681396484376,67.78830841666422,-0.0009922967292368412,-0.005382554605603218,-0.030864933505654335,67.78830841666422
2025-10-03 16:05:19.219375,-2.060148613750935,-0.21470223046839237,9.58883666932583,67.78830841666422,-0.04926469221711159,-0.0987459689565003,0.08599441587924958,67.78830841666422,-2.11480224609375,-0.3129991149902344,9.674681396484376,67.78830841666422,-0.0009922967292368412,-0.005382554605603218,-0.030864933505654335,67.78830841666422
2025-10-03 16:05:19.358735,-2.060148613750935,-0.21470223046839237,9.58883666932583,67.78830841666422,-0.04926469221711159,-0.0987459689565003,0.08599441587924958,67.78830841666422,-2.11480224609375,-0.3129991149902344,9.674681396484376,67.78830841666422,-0.0009922967292368412,-0.005382554605603218,-0.030864933505654335,67.78830841666422
2025-10-03 16:05:19.530372,-2.060148613750935,-0.21470223046839237,9.58883666932583,67.78830841666422,-0.04926469221711159,-0.0987459689565003,0.08599441587924958,67.78830841666422,-2.11480224609375,-0.3129991149902344,9.674681396484376,67.78830841666422,-0.0009922967292368412,-0.005382554605603218,-0.030864933505654335,67.78830841666422
2025-10-03 16:05:19.670404,-2.060148613750935,-0.21470223046839237,9.58883666932583,67.78830841666422,-0.04926469221711159,-0.0987459689565003,0.08599441587924958,67.78830841666422,-2.11480224609375,-0.3129991149902344,9.674681396484376,67.78830841666422,-0.0009922967292368412,-0.005382554605603218,-0.030864933505654335,67.78830841666422
2025-10-03 16:05:19.795638,-2.060148613750935,-0.21470223046839237,9.58883666932583,67.78830841666422,-0.04926469221711159,-0.0987459689565003,0.08599441587924958,67.78830841666422,-2.11480224609375,-0.3129991149902344,9.674681396484376,67.78830841666422,-0.0009922967292368412,-0.005382554605603218,-0.030864933505654335,67.78830841666422
2025-10-03 16:05:19.932644,-2.060148613750935,-0.21470223046839237,9.58883666932583,67.78830841666422,-0.04926469221711159,-0.0987459689565003,0.08599441587924958,67.78830841666422,-2.11480224609375,-0.3129991149902344,9.674681396484376,67.78830841666422,-0.0009922967292368412,-0.005382554605603218,-0.030864933505654335,67.78830841666422
2025-10-03 16:05:20.066382,-2.060148613750935,-0.21470223046839237,9.58883666932583,67.78830841666422,-0.04926469221711159,-0.0987459689565003,0.08599441587924958,67.78830841666422,-2.11480224609375,-0.3129991149902344,9.674681396484376,67.78830841666422,-0.0009922967292368412,-0.005382554605603218,-0.030864933505654335,67.78830841666422
2025-10-03 16:05:20.214933,-2.060148613750935,-0.21470223046839237,9.58883666932583,67.78830841666422,-0.04926469221711159,-0.0987459689565003,0.08599441587924958,67.78830841666422,-2.11480224609375,-0.3129991149902344,9.674681396484376,67.78830841666422,-0.0009922967292368412,-0.005382554605603218,-0.030864933505654335,67.78830841666422
2025-10-03 16:05:20.338538,-2.060148613750935,-0.21470223046839237,9.58883666932583,67.78830841666422,-0.04926469221711159,-0.0987459689565003,0.08599441587924958,67.78830841666422,-2.11480224609375,-0.3129991149902344,9.674681396484376,67.78830841666422,-0.0009922967292368412,-0.005382554605603218,-0.030864933505654335,67.78830841666422
2025-10-03 16:05:20.468446,-2.060148613750935,-0.21470223046839237,9.58883666932583,67.78830841666422,-0.04926469221711159,-0.0987459689565003,0.08599441587924958,67.78830841666422,-2.11480224609375,-0.3129991149902344,9.674681396484376,67.78830841666422,-0.0009922967292368412,-0.005382554605603218,-0.030864933505654335,67.78830841666422
2025-10-03 16:05:20.604739,-2.060148613750935,-0.21470223046839237,9.58883666932583,67.78830841666422,-0.04926469221711159,-0.0987459689565003,0.08599441587924958,67.78830841666422,-2.11480224609375,-0.3129991149902344,9.674681396484376,67.78830841666422,-0.0009922967292368412,-0.005382554605603218,-0.030864933505654335,67.78830841666422
2025-10-03 16:05:20.724745,-2.060148613750935,-0.21470223046839237,9.58883666932583,67.78830841666422,-0.04926469221711159,-0.0987459689565003,0.08599441587924958,67.78830841666422,-2.11480224609375,-0.3129991149902344,9.674681396484376,67.78830841666422,-0.0009922967292368412,-0.005382554605603218,-0.030864933505654335,67.78830841666422
2025-10-03 16:05:20.852624,-2.060148613750935,-0.21470223046839237,9.58883666932583,67.78830841666422,-0.04926469221711159,-0.0987459689565003,0.08599441587924958,67.78830841666422,-2.11480224609375,-0.3129991149902344,9.674681396484376,67.78830841666422,-0.0009922967292368412,-0.005382554605603218,-0.030864933505654335,67.78830841666422
2025-10-03 16:05:20.984261,-2.060148613750935,-0.21470223046839237,9.58883666932583,67.78830841666422,-0.04926469221711159,-0.0987459689565003,0.08599441587924958,67.78830841666422,-2.11480224609375,-0.3129991149902344,9.674681396484376,67.78830841666422,-0.0009922967292368412,-0.005382554605603218,-0.030864933505654335,67.78830841666422
2025-10-03 16:05:21.123837,-2.060148613750935,-0.21470223046839237,9.58883666932583,67.78830841666422,-0.04926469221711159,-0.0987459689565003,0.08599441587924958,67.78830841666422,-2.11480224609375,-0.3129991149902344,9.674681396484376,67.78830841666422,-0.0009922967292368412,-0.005382554605603218,-0.030864933505654335,67.78830841666422
2025-10-03 16:05:21.263167,-2.060148613750935,-0.21470223046839237,9.58883666932583,67.78830841666422,-0.04926469221711159,-0.0987459689565003,0.08599441587924958,67.78830841666422,-2.11480224609375,-0.3129991149902344,9.674681396484376,67.78830841666422,-0.0009922967292368412,-0.005382554605603218,-0.030864933505654335,67.78830841666422
2025-10-03 16:05:21.387966,-2.060148613750935,-0.21470223046839237,9.58883666932583,67.78830841666422,-0.04926469221711159,-0.0987459689565003,0.08599441587924958,67.78830841666422,-2.11480224609375,-0.3129991149902344,9.674681396484376,67.78830841666422,-0.0009922967292368412,-0.005382554605603218,-0.030864933505654335,67.78830841666422
2025-10-03 16:05:21.533814,-2.060148613750935,-0.21470223046839237,9.58883666932583,67.78830841666422,-0.04926469221711159,-0.0987459689565003,0.08599441587924958,67.78830841666422,-2.11480224609375,-0.3129991149902344,9.674681396484376,67.78830841666422,-0.0009922967292368412,-0.005382554605603218,-0.030864933505654335,67.78830841666422
2025-10-03 16:05:21.663734,-2.060148613750935,-0.21470223046839237,9.58883666932583,67.78830841666422,-0.04926469221711159,-0.0987459689565003,0.08599441587924958,67.78830841666422,-2.11480224609375,-0.3129991149902344,9.674681396484376,67.78830841666422,-0.0009922967292368412,-0.005382554605603218,-0.030864933505654335,67.78830841666422
2025-10-03 16:05:21.790284,-2.060148613750935,-0.21470223046839237,9.58883666932583,67.78830841666422,-0.04926469221711159,-0.0987459689565003,0.08599441587924958,67.78830841666422,-2.11480224609375,-0.3129991149902344,9.674681396484376,67.78830841666422,-0.0009922967292368412,-0.005382554605603218,-0.030864933505654335,67.78830841666422
2025-10-03 16:05:21.921040,-2.060148613750935,-0.21470223046839237,9.58883666932583,67.78830841666422,-0.04926469221711159,-0.0987459689565003,0.08599441587924958,67.78830841666422,-2.11480224609375,-0.3129991149902344,9.674681396484376,67.78830841666422,-0.0009922967292368412,-0.005382554605603218,-0.030864933505654335,67.78830841666422
2025-10-03 16:05:22.054805,-2.060148613750935,-0.21470223046839237,9.58883666932583,67.78830841666422,-0.04926469221711159,-0.0987459689565003,0.08599441587924958,67.78830841666422,-2.11480224609375,-0.3129991149902344,9.674681396484376,67.78830841666422,-0.0009922967292368412,-0.005382554605603218,-0.030864933505654335,67.78830841666422
2025-10-03 16:05:22.193475,-2.060148613750935,-0.21470223046839237,9.58883666932583,67.78830841666422,-0.04926469221711159,-0.0987459689565003,0.08599441587924958,67.78830841666422,-2.11480224609375,-0.3129991149902344,9.674681396484376,67.78830841666422,-0.0009922967292368412,-0.005382554605603218,-0.030864933505654335,67.78830841666422
2025-10-03 16:05:22.323570,-2.060148613750935,-0.21470223046839237,9.58883666932583,67.78830841666422,-0.04926469221711159,-0.0987459689565003,0.08599441587924958,67.78830841666422,-2.11480224609375,-0.3129991149902344,9.674681396484376,67.78830841666422,-0.0009922967292368412,-0.005382554605603218,-0.030864933505654335,67.78830841666422
2025-10-03 16:05:22.464742,-2.060148613750935,-0.21470223046839237,9.58883666932583,67.78830841666422,-0.04926469221711159,-0.0987459689565003,0.08599441587924958,67.78830841666422,-2.11480224609375,-0.3129991149902344,9.674681396484376,67.78830841666422,-0.0009922967292368412,-0.005382554605603218,-0.030864933505654335,67.78830841666422
2025-10-03 16:05:22.589080,-2.060148613750935,-0.21470223046839237,9.58883666932583,67.78830841666422,-0.04926469221711159,-0.0987459689565003,0.08599441587924958,67.78830841666422,-2.11480224609375,-0.3129991149902344,9.674681396484376,67.78830841666422,-0.0009922967292368412,-0.005382554605603218,-0.030864933505654335,67.78830841666422
2025-10-03 16:05:22.720494,-2.060148613750935,-0.21470223046839237,9.58883666932583,67.78830841666422,-0.04926469221711159,-0.0987459689565003,0.08599441587924958,67.78830841666422,-2.11480224609375,-0.3129991149902344,9.674681396484376,67.78830841666422,-0.0009922967292368412,-0.005382554605603218,-0.030864933505654335,67.78830841666422
2025-10-03 16:05:22.839793,-2.060148613750935,-0.21470223046839237,9.58883666932583,67.78830841666422,-0.04926469221711159,-0.0987459689565003,0.08599441587924958,67.78830841666422,-2.11480224609375,-0.3129991149902344,9.674681396484376,67.78830841666422,-0.0009922967292368412,-0.005382554605603218,-0.030864933505654335,67.78830841666422
2025-10-03 16:05:22.958605,-2.060148613750935,-0.21470223046839237,9.58883666932583,67.78830841666422,-0.04926469221711159,-0.0987459689565003,0.08599441587924958,67.78830841666422,-2.11480224609375,-0.3129991149902344,9.674681396484376,67.78830841666422,-0.0009922967292368412,-0.005382554605603218,-0.030864933505654335,67.78830841666422
2025-10-03 16:05:23.097418,-2.060148613750935,-0.21470223046839237,9.58883666932583,67.78830841666422,-0.04926469221711159,-0.0987459689565003,0.08599441587924958,67.78830841666422,-2.11480224609375,-0.3129991149902344,9.674681396484376,67.78830841666422,-0.0009922967292368412,-0.005382554605603218,-0.030864933505654335,67.78830841666422
2025-10-03 16:05:23.245003,-2.060148613750935,-0.21470223046839237,9.58883666932583,67.78830841666422,-0.04926469221711159,-0.0987459689565003,0.08599441587924958,67.78830841666422,-2.11480224609375,-0.3129991149902344,9.674681396484376,67.78830841666422,-0.0009922967292368412,-0.005382554605603218,-0.030864933505654335,67.78830841666422
2025-10-03 16:05:23.387762,-2.060148613750935,-0.21470223046839237,9.58883666932583,67.78830841666422,-0.04926469221711159,-0.0987459689565003,0.08599441587924958,67.78830841666422,-2.11480224609375,-0.3129991149902344,9.674681396484376,67.78830841666422,-0.0009922967292368412,-0.005382554605603218,-0.030864933505654335,67.78830841666422
2025-10-03 16:05:23.507700,-2.060148613750935,-0.21470223046839237,9.58883666932583,67.78830841666422,-0.04926469221711159,-0.0987459689565003,0.08599441587924958,67.78830841666422,-2.11480224609375,-0.3129991149902344,9.674681396484376,67.78830841666422,-0.0009922967292368412,-0.005382554605603218,-0.030864933505654335,67.78830841666422
2025-10-03 16:05:23.646951,-2.060148613750935,-0.21470223046839237,9.58883666932583,67.78830841666422,-0.04926469221711159,-0.0987459689565003,0.08599441587924958,67.78830841666422,-2.11480224609375,-0.3129991149902344,9.674681396484376,67.78830841666422,-0.0009922967292368412,-0.005382554605603218,-0.030864933505654335,67.78830841666422
2025-10-03 16:05:23.789970,-2.060148613750935,-0.21470223046839237,9.58883666932583,67.78830841666422,-0.04926469221711159,-0.0987459689565003,0.08599441587924958,67.78830841666422,-2.11480224609375,-0.3129991149902344,9.674681396484376,67.78830841666422,-0.0009922967292368412,-0.005382554605603218,-0.030864933505654335,67.78830841666422
2025-10-03 16:05:23.922512,-2.060148613750935,-0.21470223046839237,9.58883666932583,67.78830841666422,-0.04926469221711159,-0.0987459689565003,0.08599441587924958,67.78830841666422,-2.11480224609375,-0.3129991149902344,9.674681396484376,67.78830841666422,-0.0009922967292368412,-0.005382554605603218,-0.030864933505654335,67.78830841666422
2025-10-03 16:05:24.042794,-2.060148613750935,-0.21470223046839237,9.58883666932583,67.78830841666422,-0.04926469221711159,-0.0987459689565003,0.08599441587924958,67.78830841666422,-2.11480224609375,-0.3129991149902344,9.674681396484376,67.78830841666422,-0.0009922967292368412,-0.005382554605603218,-0.030864933505654335,67.78830841666422
2025-10-03 16:05:24.195708,-2.060148613750935,-0.21470223046839237,9.58883666932583,67.78830841666422,-0.04926469221711159,-0.0987459689565003,0.08599441587924958,67.78830841666422,-2.11480224609375,-0.3129991149902344,9.674681396484376,67.78830841666422,-0.0009922967292368412,-0.005382554605603218,-0.030864933505654335,67.78830841666422
2025-10-03 16:05:24.323875,-2.060148613750935,-0.21470223046839237,9.58883666932583,67.78830841666422,-0.04926469221711159,-0.0987459689565003,0.08599441587924958,67.78830841666422,-2.11480224609375,-0.3129991149902344,9.674681396484376,67.78830841666422,-0.0009922967292368412,-0.005382554605603218,-0.030864933505654335,67.78830841666422
2025-10-03 16:05:24.472327,-2.060148613750935,-0.21470223046839237,9.58883666932583,67.78830841666422,-0.04926469221711159,-0.0987459689565003,0.08599441587924958,67.78830841666422,-2.11480224609375,-0.3129991149902344,9.674681396484376,67.78830841666422,-0.0009922967292368412,-0.005382554605603218,-0.030864933505654335,67.78830841666422
2025-10-03 16:05:24.606813,-2.060148613750935,-0.21470223046839237,9.58883666932583,67.78830841666422,-0.04926469221711159,-0.0987459689565003,0.08599441587924958,67.78830841666422,-2.11480224609375,-0.3129991149902344,9.674681396484376,67.78830841666422,-0.0009922967292368412,-0.005382554605603218,-0.030864933505654335,67.78830841666422
2025-10-03 16:05:24.750591,-2.060148613750935,-0.21470223046839237,9.58883666932583,67.78830841666422,-0.04926469221711159,-0.0987459689565003,0.08599441587924958,67.78830841666422,-2.11480224609375,-0.3129991149902344,9.674681396484376,67.78830841666422,-0.0009922967292368412,-0.005382554605603218,-0.030864933505654335,67.78830841666422
2025-10-03 16:05:24.904941,-2.060148613750935,-0.21470223046839237,9.58883666932583,67.78830841666422,-0.04926469221711159,-0.0987459689565003,0.08599441587924958,67.78830841666422,-2.11480224609375,-0.3129991149902344,9.674681396484376,67.78830841666422,-0.0009922967292368412,-0.005382554605603218,-0.030864933505654335,67.78830841666422
2025-10-03 16:05:25.031616,-2.060148613750935,-0.21470223046839237,9.58883666932583,67.78830841666422,-0.04926469221711159,-0.0987459689565003,0.08599441587924958,67.78830841666422,-2.11480224609375,-0.3129991149902344,9.674681396484376,67.78830841666422,-0.0009922967292368412,-0.005382554605603218,-0.030864933505654335,67.78830841666422
2025-10-03 16:05:25.161012,-2.060148613750935,-0.21470223046839237,9.58883666932583,67.78830841666422,-0.04926469221711159,-0.0987459689565003,0.08599441587924958,67.78830841666422,-2.11480224609375,-0.3129991149902344,9.674681396484376,67.78830841666422,-0.0009922967292368412,-0.005382554605603218,-0.030864933505654335,67.78830841666422
2025-10-03 16:05:25.287094,-2.060148613750935,-0.21470223046839237,9.58883666932583,67.78830841666422,-0.04926469221711159,-0.0987459689565003,0.08599441587924958,67.78830841666422,-2.11480224609375,-0.3129991149902344,9.674681396484376,67.78830841666422,-0.0009922967292368412,-0.005382554605603218,-0.030864933505654335,67.78830841666422
2025-10-03 16:05:25.419124,-2.060148613750935,-0.21470223046839237,9.58883666932583,67.78830841666422,-0.04926469221711159,-0.0987459689565003,0.08599441587924958,67.78830841666422,-2.11480224609375,-0.3129991149902344,9.674681396484376,67.78830841666422,-0.0009922967292368412,-0.005382554605603218,-0.030864933505654335,67.78830841666422
2025-10-03 16:05:25.539451,-2.060148613750935,-0.21470223046839237,9.58883666932583,67.78830841666422,-0.04926469221711159,-0.0987459689565003,0.08599441587924958,67.78830841666422,-2.11480224609375,-0.3129991149902344,9.674681396484376,67.78830841666422,-0.0009922967292368412,-0.005382554605603218,-0.030864933505654335,67.78830841666422
2025-10-03 16:05:25.665250,-2.060148613750935,-0.21470223046839237,9.58883666932583,67.78830841666422,-0.04926469221711159,-0.0987459689565003,0.08599441587924958,67.78830841666422,-2.11480224609375,-0.3129991149902344,9.674681396484376,67.78830841666422,-0.0009922967292368412,-0.005382554605603218,-0.030864933505654335,67.78830841666422
2025-10-03 16:05:25.789217,-2.060148613750935,-0.21470223046839237,9.58883666932583,67.78830841666422,-0.04926469221711159,-0.0987459689565003,0.08599441587924958,67.78830841666422,-2.11480224609375,-0.3129991149902344,9.674681396484376,67.78830841666422,-0.0009922967292368412,-0.005382554605603218,-0.030864933505654335,67.78830841666422
2025-10-03 16:05:25.925367,-2.060148613750935,-0.21470223046839237,9.58883666932583,67.78830841666422,-0.04926469221711159,-0.0987459689565003,0.08599441587924958,67.78830841666422,-2.11480224609375,-0.3129991149902344,9.674681396484376,67.78830841666422,-0.0009922967292368412,-0.005382554605603218,-0.030864933505654335,67.78830841666422
2025-10-03 16:05:26.054251,-2.060148613750935,-0.21470223046839237,9.58883666932583,67.78830841666422,-0.04926469221711159,-0.0987459689565003,0.08599441587924958,67.78830841666422,-2.11480224609375,-0.3129991149902344,9.674681396484376,67.78830841666422,-0.0009922967292368412,-0.005382554605603218,-0.030864933505654335,67.78830841666422
2025-10-03 16:05:26.189609,-2.060148613750935,-0.21470223046839237,9.58883666932583,67.78830841666422,-0.04926469221711159,-0.0987459689565003,0.08599441587924958,67.78830841666422,-2.11480224609375,-0.3129991149902344,9.674681396484376,67.78830841666422,-0.0009922967292368412,-0.005382554605603218,-0.030864933505654335,67.78830841666422
2025-10-03 16:05:26.320106,-2.060148613750935,-0.21470223046839237,9.58883666932583,67.78830841666422,-0.04926469221711159,-0.0987459689565003,0.08599441587924958,67.78830841666422,-2.11480224609375,-0.3129991149902344,9.674681396484376,67.78830841666422,-0.0009922967292368412,-0.005382554605603218,-0.030864933505654335,67.78830841666422
2025-10-03 16:05:26.465956,-2.060148613750935,-0.21470223046839237,9.58883666932583,67.78830841666422,-0.04926469221711159,-0.0987459689565003,0.08599441587924958,67.78830841666422,-2.11480224609375,-0.3129991149902344,9.674681396484376,67.78830841666422,-0.0009922967292368412,-0.005382554605603218,-0.030864933505654335,67.78830841666422
2025-10-03 16:05:26.598497,-2.060148613750935,-0.21470223046839237,9.58883666932583,67.78830841666422,-0.04926469221711159,-0.0987459689565003,0.08599441587924958,67.78830841666422,-2.11480224609375,-0.3129991149902344,9.674681396484376,67.78830841666422,-0.0009922967292368412,-0.005382554605603218,-0.030864933505654335,67.78830841666422
2025-10-03 16:05:26.749921,-2.060148613750935,-0.21470223046839237,9.58883666932583,67.78830841666422,-0.04926469221711159,-0.0987459689565003,0.08599441587924958,67.78830841666422,-2.11480224609375,-0.3129991149902344,9.674681396484376,67.78830841666422,-0.0009922967292368412,-0.005382554605603218,-0.030864933505654335,67.78830841666422
2025-10-03 16:05:26.868775,-2.060148613750935,-0.21470223046839237,9.58883666932583,67.78830841666422,-0.04926469221711159,-0.0987459689565003,0.08599441587924958,67.78830841666422,-2.11480224609375,-0.3129991149902344,9.674681396484376,67.78830841666422,-0.0009922967292368412,-0.005382554605603218,-0.030864933505654335,67.78830841666422
2025-10-03 16:05:26.994955,-2.060148613750935,-0.21470223046839237,9.58883666932583,67.78830841666422,-0.04926469221711159,-0.0987459689565003,0.08599441587924958,67.78830841666422,-2.11480224609375,-0.3129991149902344,9.674681396484376,67.78830841666422,-0.0009922967292368412,-0.005382554605603218,-0.030864933505654335,67.78830841666422
2025-10-03 16:05:27.128131,-2.060148613750935,-0.21470223046839237,9.58883666932583,67.78830841666422,-0.04926469221711159,-0.0987459689565003,0.08599441587924958,67.78830841666422,-2.11480224609375,-0.3129991149902344,9.674681396484376,67.78830841666422,-0.0009922967292368412,-0.005382554605603218,-0.030864933505654335,67.78830841666422
2025-10-03 16:05:27.283278,-2.060148613750935,-0.21470223046839237,9.58883666932583,67.78830841666422,-0.04926469221711159,-0.0987459689565003,0.08599441587924958,67.78830841666422,-2.11480224609375,-0.3129991149902344,9.674681396484376,67.78830841666422,-0.0009922967292368412,-0.005382554605603218,-0.030864933505654335,67.78830841666422
2025-10-03 16:05:27.417612,-2.060148613750935,-0.21470223046839237,9.58883666932583,67.78830841666422,-0.04926469221711159,-0.0987459689565003,0.08599441587924958,67.78830841666422,-2.11480224609375,-0.3129991149902344,9.674681396484376,67.78830841666422,-0.0009922967292368412,-0.005382554605603218,-0.030864933505654335,67.78830841666422
2025-10-03 16:05:27.537646,-2.060148613750935,-0.21470223046839237,9.58883666932583,67.78830841666422,-0.04926469221711159,-0.0987459689565003,0.08599441587924958,67.78830841666422,-2.11480224609375,-0.3129991149902344,9.674681396484376,67.78830841666422,-0.0009922967292368412,-0.005382554605603218,-0.030864933505654335,67.78830841666422
2025-10-03 16:05:27.661886,-2.060148613750935,-0.21470223046839237,9.58883666932583,67.78830841666422,-0.04926469221711159,-0.0987459689565003,0.08599441587924958,67.78830841666422,-2.11480224609375,-0.3129991149902344,9.674681396484376,67.78830841666422,-0.0009922967292368412,-0.005382554605603218,-0.030864933505654335,67.78830841666422
2025-10-03 16:05:27.802803,-2.060148613750935,-0.21470223046839237,9.58883666932583,67.78830841666422,-0.04926469221711159,-0.0987459689565003,0.08599441587924958,67.78830841666422,-2.11480224609375,-0.3129991149902344,9.674681396484376,67.78830841666422,-0.0009922967292368412,-0.005382554605603218,-0.030864933505654335,67.78830841666422
2025-10-03 16:05:28.601296,-2.060148613750935,-0.21470223046839237,9.58883666932583,67.78830841666422,-0.04926469221711159,-0.0987459689565003,0.08599441587924958,67.78830841666422,-2.11480224609375,-0.3129991149902344,9.674681396484376,67.78830841666422,-0.0009922967292368412,-0.005382554605603218,-0.030864933505654335,67.78830841666422
2025-10-03 16:05:28.728282,-2.060148613750935,-0.21470223046839237,9.58883666932583,67.78830841666422,-0.04926469221711159,-0.0987459689565003,0.08599441587924958,67.78830841666422,-2.11480224609375,-0.3129991149902344,9.674681396484376,67.78830841666422,-0.0009922967292368412,-0.005382554605603218,-0.030864933505654335,67.78830841666422
2025-10-03 16:05:28.864822,-2.060148613750935,-0.21470223046839237,9.58883666932583,67.78830841666422,-0.04926469221711159,-0.0987459689565003,0.08599441587924958,67.78830841666422,-2.11480224609375,-0.3129991149902344,9.674681396484376,67.78830841666422,-0.0009922967292368412,-0.005382554605603218,-0.030864933505654335,67.78830841666422
2025-10-03 16:05:29.002041,-2.060148613750935,-0.21470223046839237,9.58883666932583,67.78830841666422,-0.04926469221711159,-0.0987459689565003,0.08599441587924958,67.78830841666422,-2.11480224609375,-0.3129991149902344,9.674681396484376,67.78830841666422,-0.0009922967292368412,-0.005382554605603218,-0.030864933505654335,67.78830841666422
2025-10-03 16:05:29.128215,-2.060148613750935,-0.21470223046839237,9.58883666932583,67.78830841666422,-0.04926469221711159,-0.0987459689565003,0.08599441587924958,67.78830841666422,-2.11480224609375,-0.3129991149902344,9.674681396484376,67.78830841666422,-0.0009922967292368412,-0.005382554605603218,-0.030864933505654335,67.78830841666422
2025-10-03 16:05:29.256909,-2.060148613750935,-0.21470223046839237,9.58883666932583,67.78830841666422,-0.04926469221711159,-0.0987459689565003,0.08599441587924958,67.78830841666422,-2.11480224609375,-0.3129991149902344,9.674681396484376,67.78830841666422,-0.0009922967292368412,-0.005382554605603218,-0.030864933505654335,67.78830841666422
2025-10-03 16:05:29.399492,-2.060148613750935,-0.21470223046839237,9.58883666932583,67.78830841666422,-0.04926469221711159,-0.0987459689565003,0.08599441587924958,67.78830841666422,-2.11480224609375,-0.3129991149902344,9.674681396484376,67.78830841666422,-0.0009922967292368412,-0.005382554605603218,-0.030864933505654335,67.78830841666422
2025-10-03 16:05:29.532283,-2.060148613750935,-0.21470223046839237,9.58883666932583,67.78830841666422,-0.04926469221711159,-0.0987459689565003,0.08599441587924958,67.78830841666422,-2.11480224609375,-0.3129991149902344,9.674681396484376,67.78830841666422,-0.0009922967292368412,-0.005382554605603218,-0.030864933505654335,67.78830841666422
2025-10-03 16:05:29.663584,-2.060148613750935,-0.21470223046839237,9.58883666932583,67.78830841666422,-0.04926469221711159,-0.0987459689565003,0.08599441587924958,67.78830841666422,-2.11480224609375,-0.3129991149902344,9.674681396484376,67.78830841666422,-0.0009922967292368412,-0.005382554605603218,-0.030864933505654335,67.78830841666422
2025-10-03 16:05:29.799288,-2.060148613750935,-0.21470223046839237,9.58883666932583,67.78830841666422,-0.04926469221711159,-0.0987459689565003,0.08599441587924958,67.78830841666422,-2.11480224609375,-0.3129991149902344,9.674681396484376,67.78830841666422,-0.0009922967292368412,-0.005382554605603218,-0.030864933505654335,67.78830841666422
2025-10-03 16:05:29.920250,-2.060148613750935,-0.21470223046839237,9.58883666932583,67.78830841666422,-0.04926469221711159,-0.0987459689565003,0.08599441587924958,67.78830841666422,-2.11480224609375,-0.3129991149902344,9.674681396484376,67.78830841666422,-0.0009922967292368412,-0.005382554605603218,-0.030864933505654335,67.78830841666422
2025-10-03 16:05:30.048382,-2.060148613750935,-0.21470223046839237,9.58883666932583,67.78830841666422,-0.04926469221711159,-0.0987459689565003,0.08599441587924958,67.78830841666422,-2.11480224609375,-0.3129991149902344,9.674681396484376,67.78830841666422,-0.0009922967292368412,-0.005382554605603218,-0.030864933505654335,67.78830841666422
2025-10-03 16:05:30.165191,-2.060148613750935,-0.21470223046839237,9.58883666932583,67.78830841666422,-0.04926469221711159,-0.0987459689565003,0.08599441587924958,67.78830841666422,-2.11480224609375,-0.3129991149902344,9.674681396484376,67.78830841666422,-0.0009922967292368412,-0.005382554605603218,-0.030864933505654335,67.78830841666422
2025-10-03 16:05:30.299120,-2.060148613750935,-0.21470223046839237,9.58883666932583,67.78830841666422,-0.04926469221711159,-0.0987459689565003,0.08599441587924958,67.78830841666422,-2.11480224609375,-0.3129991149902344,9.674681396484376,67.78830841666422,-0.0009922967292368412,-0.005382554605603218,-0.030864933505654335,67.78830841666422
2025-10-03 16:05:30.420971,-2.060148613750935,-0.21470223046839237,9.58883666932583,67.78830841666422,-0.04926469221711159,-0.0987459689565003,0.08599441587924958,67.78830841666422,-2.11480224609375,-0.3129991149902344,9.674681396484376,67.78830841666422,-0.0009922967292368412,-0.005382554605603218,-0.030864933505654335,67.78830841666422
2025-10-03 16:05:30.544535,-2.060148613750935,-0.21470223046839237,9.58883666932583,67.78830841666422,-0.04926469221711159,-0.0987459689565003,0.08599441587924958,67.78830841666422,-2.11480224609375,-0.3129991149902344,9.674681396484376,67.78830841666422,-0.0009922967292368412,-0.005382554605603218,-0.030864933505654335,67.78830841666422
2025-10-03 16:05:30.666333,-2.060148613750935,-0.21470223046839237,9.58883666932583,67.78830841666422,-0.04926469221711159,-0.0987459689565003,0.08599441587924958,67.78830841666422,-2.11480224609375,-0.3129991149902344,9.674681396484376,67.78830841666422,-0.0009922967292368412,-0.005382554605603218,-0.030864933505654335,67.78830841666422
2025-10-03 16:05:30.802897,-2.060148613750935,-0.21470223046839237,9.58883666932583,67.78830841666422,-0.04926469221711159,-0.0987459689565003,0.08599441587924958,67.78830841666422,-2.11480224609375,-0.3129991149902344,9.674681396484376,67.78830841666422,-0.0009922967292368412,-0.005382554605603218,-0.030864933505654335,67.78830841666422
2025-10-03 16:05:30.936925,-2.060148613750935,-0.21470223046839237,9.58883666932583,67.78830841666422,-0.04926469221711159,-0.0987459689565003,0.08599441587924958,67.78830841666422,-2.11480224609375,-0.3129991149902344,9.674681396484376,67.78830841666422,-0.0009922967292368412,-0.005382554605603218,-0.030864933505654335,67.78830841666422
2025-10-03 16:05:31.073457,-2.060148613750935,-0.21470223046839237,9.58883666932583,67.78830841666422,-0.04926469221711159,-0.0987459689565003,0.08599441587924958,67.78830841666422,-2.11480224609375,-0.3129991149902344,9.674681396484376,67.78830841666422,-0.0009922967292368412,-0.005382554605603218,-0.030864933505654335,67.78830841666422
2025-10-03 16:05:31.200091,-2.060148613750935,-0.21470223046839237,9.58883666932583,67.78830841666422,-0.04926469221711159,-0.0987459689565003,0.08599441587924958,67.78830841666422,-2.11480224609375,-0.3129991149902344,9.674681396484376,67.78830841666422,-0.0009922967292368412,-0.005382554605603218,-0.030864933505654335,67.78830841666422
2025-10-03 16:05:31.359355,-2.060148613750935,-0.21470223046839237,9.58883666932583,67.78830841666422,-0.04926469221711159,-0.0987459689565003,0.08599441587924958,67.78830841666422,-2.11480224609375,-0.3129991149902344,9.674681396484376,67.78830841666422,-0.0009922967292368412,-0.005382554605603218,-0.030864933505654335,67.78830841666422
2025-10-03 16:05:31.489678,-2.060148613750935,-0.21470223046839237,9.58883666932583,67.78830841666422,-0.04926469221711159,-0.0987459689565003,0.08599441587924958,67.78830841666422,-2.11480224609375,-0.3129991149902344,9.674681396484376,67.78830841666422,-0.0009922967292368412,-0.005382554605603218,-0.030864933505654335,67.78830841666422
2025-10-03 16:05:31.616252,-2.060148613750935,-0.21470223046839237,9.58883666932583,67.78830841666422,-0.04926469221711159,-0.0987459689565003,0.08599441587924958,67.78830841666422,-2.11480224609375,-0.3129991149902344,9.674681396484376,67.78830841666422,-0.0009922967292368412,-0.005382554605603218,-0.030864933505654335,67.78830841666422
2025-10-03 16:05:31.741780,-2.060148613750935,-0.21470223046839237,9.58883666932583,67.78830841666422,-0.04926469221711159,-0.0987459689565003,0.08599441587924958,67.78830841666422,-2.11480224609375,-0.3129991149902344,9.674681396484376,67.78830841666422,-0.0009922967292368412,-0.005382554605603218,-0.030864933505654335,67.78830841666422
2025-10-03 16:05:31.865575,-2.060148613750935,-0.21470223046839237,9.58883666932583,67.78830841666422,-0.04926469221711159,-0.0987459689565003,0.08599441587924958,67.78830841666422,-2.11480224609375,-0.3129991149902344,9.674681396484376,67.78830841666422,-0.0009922967292368412,-0.005382554605603218,-0.030864933505654335,67.78830841666422
2025-10-03 16:05:32.004024,-2.060148613750935,-0.21470223046839237,9.58883666932583,67.78830841666422,-0.04926469221711159,-0.0987459689565003,0.08599441587924958,67.78830841666422,-2.11480224609375,-0.3129991149902344,9.674681396484376,67.78830841666422,-0.0009922967292368412,-0.005382554605603218,-0.030864933505654335,67.78830841666422
2025-10-03 16:05:32.142350,-2.060148613750935,-0.21470223046839237,9.58883666932583,67.78830841666422,-0.04926469221711159,-0.0987459689565003,0.08599441587924958,67.78830841666422,-2.11480224609375,-0.3129991149902344,9.674681396484376,67.78830841666422,-0.0009922967292368412,-0.005382554605603218,-0.030864933505654335,67.78830841666422
2025-10-03 16:05:32.279203,-2.060148613750935,-0.21470223046839237,9.58883666932583,67.78830841666422,-0.04926469221711159,-0.0987459689565003,0.08599441587924958,67.78830841666422,-2.11480224609375,-0.3129991149902344,9.674681396484376,67.78830841666422,-0.0009922967292368412,-0.005382554605603218,-0.030864933505654335,67.78830841666422
2025-10-03 16:05:32.418724,-2.060148613750935,-0.21470223046839237,9.58883666932583,67.78830841666422,-0.04926469221711159,-0.0987459689565003,0.08599441587924958,67.78830841666422,-2.11480224609375,-0.3129991149902344,9.674681396484376,67.78830841666422,-0.0009922967292368412,-0.005382554605603218,-0.030864933505654335,67.78830841666422
2025-10-03 16:05:32.548957,-2.060148613750935,-0.21470223046839237,9.58883666932583,67.78830841666422,-0.04926469221711159,-0.0987459689565003,0.08599441587924958,67.78830841666422,-2.11480224609375,-0.3129991149902344,9.674681396484376,67.78830841666422,-0.0009922967292368412,-0.005382554605603218,-0.030864933505654335,67.78830841666422
2025-10-03 16:05:32.677198,-2.060148613750935,-0.21470223046839237,9.58883666932583,67.78830841666422,-0.04926469221711159,-0.0987459689565003,0.08599441587924958,67.78830841666422,-2.11480224609375,-0.3129991149902344,9.674681396484376,67.78830841666422,-0.0009922967292368412,-0.005382554605603218,-0.030864933505654335,67.78830841666422
2025-10-03 16:05:32.818383,-2.060148613750935,-0.21470223046839237,9.58883666932583,67.78830841666422,-0.04926469221711159,-0.0987459689565003,0.08599441587924958,67.78830841666422,-2.11480224609375,-0.3129991149902344,9.674681396484376,67.78830841666422,-0.0009922967292368412,-0.005382554605603218,-0.030864933505654335,67.78830841666422
2025-10-03 16:05:32.939388,-2.060148613750935,-0.21470223046839237,9.58883666932583,67.78830841666422,-0.04926469221711159,-0.0987459689565003,0.08599441587924958,67.78830841666422,-2.11480224609375,-0.3129991149902344,9.674681396484376,67.78830841666422,-0.0009922967292368412,-0.005382554605603218,-0.030864933505654335,67.78830841666422
2025-10-03 16:05:33.083338,-2.060148613750935,-0.21470223046839237,9.58883666932583,67.78830841666422,-0.04926469221711159,-0.0987459689565003,0.08599441587924958,67.78830841666422,-2.11480224609375,-0.3129991149902344,9.674681396484376,67.78830841666422,-0.0009922967292368412,-0.005382554605603218,-0.030864933505654335,67.78830841666422
2025-10-03 16:05:33.222195,-2.060148613750935,-0.21470223046839237,9.58883666932583,67.78830841666422,-0.04926469221711159,-0.0987459689565003,0.08599441587924958,67.78830841666422,-2.11480224609375,-0.3129991149902344,9.674681396484376,67.78830841666422,-0.0009922967292368412,-0.005382554605603218,-0.030864933505654335,67.78830841666422
2025-10-03 16:05:33.362056,-2.060148613750935,-0.21470223046839237,9.58883666932583,67.78830841666422,-0.04926469221711159,-0.0987459689565003,0.08599441587924958,67.78830841666422,-2.11480224609375,-0.3129991149902344,9.674681396484376,67.78830841666422,-0.0009922967292368412,-0.005382554605603218,-0.030864933505654335,67.78830841666422
2025-10-03 16:05:33.493539,-2.060148613750935,-0.21470223046839237,9.58883666932583,67.78830841666422,-0.04926469221711159,-0.0987459689565003,0.08599441587924958,67.78830841666422,-2.11480224609375,-0.3129991149902344,9.674681396484376,67.78830841666422,-0.0009922967292368412,-0.005382554605603218,-0.030864933505654335,67.78830841666422
2025-10-03 16:05:33.630154,-2.060148613750935,-0.21470223046839237,9.58883666932583,67.78830841666422,-0.04926469221711159,-0.0987459689565003,0.08599441587924958,67.78830841666422,-2.11480224609375,-0.3129991149902344,9.674681396484376,67.78830841666422,-0.0009922967292368412,-0.005382554605603218,-0.030864933505654335,67.78830841666422
2025-10-03 16:05:33.758161,-2.060148613750935,-0.21470223046839237,9.58883666932583,67.78830841666422,-0.04926469221711159,-0.0987459689565003,0.08599441587924958,67.78830841666422,-2.11480224609375,-0.3129991149902344,9.674681396484376,67.78830841666422,-0.0009922967292368412,-0.005382554605603218,-0.030864933505654335,67.78830841666422
2025-10-03 16:05:33.904816,-2.060148613750935,-0.21470223046839237,9.58883666932583,67.78830841666422,-0.04926469221711159,-0.0987459689565003,0.08599441587924958,67.78830841666422,-2.11480224609375,-0.3129991149902344,9.674681396484376,67.78830841666422,-0.0009922967292368412,-0.005382554605603218,-0.030864933505654335,67.78830841666422
2025-10-03 16:05:34.035023,-2.060148613750935,-0.21470223046839237,9.58883666932583,67.78830841666422,-0.04926469221711159,-0.0987459689565003,0.08599441587924958,67.78830841666422,-2.11480224609375,-0.3129991149902344,9.674681396484376,67.78830841666422,-0.0009922967292368412,-0.005382554605603218,-0.030864933505654335,67.78830841666422
2025-10-03 16:05:34.177865,-2.060148613750935,-0.21470223046839237,9.58883666932583,67.78830841666422,-0.04926469221711159,-0.0987459689565003,0.08599441587924958,67.78830841666422,-2.11480224609375,-0.3129991149902344,9.674681396484376,67.78830841666422,-0.0009922967292368412,-0.005382554605603218,-0.030864933505654335,67.78830841666422
2025-10-03 16:05:34.306231,-2.060148613750935,-0.21470223046839237,9.58883666932583,67.78830841666422,-0.04926469221711159,-0.0987459689565003,0.08599441587924958,67.78830841666422,-2.11480224609375,-0.3129991149902344,9.674681396484376,67.78830841666422,-0.0009922967292368412,-0.005382554605603218,-0.030864933505654335,67.78830841666422
2025-10-03 16:05:34.446514,-2.060148613750935,-0.21470223046839237,9.58883666932583,67.78830841666422,-0.04926469221711159,-0.0987459689565003,0.08599441587924958,67.78830841666422,-2.11480224609375,-0.3129991149902344,9.674681396484376,67.78830841666422,-0.0009922967292368412,-0.005382554605603218,-0.030864933505654335,67.78830841666422
2025-10-03 16:05:34.584234,-2.060148613750935,-0.21470223046839237,9.58883666932583,67.78830841666422,-0.04926469221711159,-0.0987459689565003,0.08599441587924958,67.78830841666422,-2.11480224609375,-0.3129991149902344,9.674681396484376,67.78830841666422,-0.0009922967292368412,-0.005382554605603218,-0.030864933505654335,67.78830841666422
2025-10-03 16:05:34.716737,-2.060148613750935,-0.21470223046839237,9.58883666932583,67.78830841666422,-0.04926469221711159,-0.0987459689565003,0.08599441587924958,67.78830841666422,-2.11480224609375,-0.3129991149902344,9.674681396484376,67.78830841666422,-0.0009922967292368412,-0.005382554605603218,-0.030864933505654335,67.78830841666422
2025-10-03 16:05:34.842909,-2.060148613750935,-0.21470223046839237,9.58883666932583,67.78830841666422,-0.04926469221711159,-0.0987459689565003,0.08599441587924958,67.78830841666422,-2.11480224609375,-0.3129991149902344,9.674681396484376,67.78830841666422,-0.0009922967292368412,-0.005382554605603218,-0.030864933505654335,67.78830841666422
2025-10-03 16:05:34.974305,-2.060148613750935,-0.21470223046839237,9.58883666932583,67.78830841666422,-0.04926469221711159,-0.0987459689565003,0.08599441587924958,67.78830841666422,-2.11480224609375,-0.3129991149902344,9.674681396484376,67.78830841666422,-0.0009922967292368412,-0.005382554605603218,-0.030864933505654335,67.78830841666422
2025-10-03 16:05:35.111990,-2.060148613750935,-0.21470223046839237,9.58883666932583,67.78830841666422,-0.04926469221711159,-0.0987459689565003,0.08599441587924958,67.78830841666422,-2.11480224609375,-0.3129991149902344,9.674681396484376,67.78830841666422,-0.0009922967292368412,-0.005382554605603218,-0.030864933505654335,67.78830841666422
2025-10-03 16:05:35.257600,-2.060148613750935,-0.21470223046839237,9.58883666932583,67.78830841666422,-0.04926469221711159,-0.0987459689565003,0.08599441587924958,67.78830841666422,-2.11480224609375,-0.3129991149902344,9.674681396484376,67.78830841666422,-0.0009922967292368412,-0.005382554605603218,-0.030864933505654335,67.78830841666422
2025-10-03 16:05:35.404941,-2.060148613750935,-0.21470223046839237,9.58883666932583,67.78830841666422,-0.04926469221711159,-0.0987459689565003,0.08599441587924958,67.78830841666422,-2.11480224609375,-0.3129991149902344,9.674681396484376,67.78830841666422,-0.0009922967292368412,-0.005382554605603218,-0.030864933505654335,67.78830841666422
2025-10-03 16:05:35.541646,-2.060148613750935,-0.21470223046839237,9.58883666932583,67.78830841666422,-0.04926469221711159,-0.0987459689565003,0.08599441587924958,67.78830841666422,-2.11480224609375,-0.3129991149902344,9.674681396484376,67.78830841666422,-0.0009922967292368412,-0.005382554605603218,-0.030864933505654335,67.78830841666422
2025-10-03 16:05:35.683333,-2.060148613750935,-0.21470223046839237,9.58883666932583,67.78830841666422,-0.04926469221711159,-0.0987459689565003,0.08599441587924958,67.78830841666422,-2.11480224609375,-0.3129991149902344,9.674681396484376,67.78830841666422,-0.0009922967292368412,-0.005382554605603218,-0.030864933505654335,67.78830841666422
2025-10-03 16:05:35.817705,-2.060148613750935,-0.21470223046839237,9.58883666932583,67.78830841666422,-0.04926469221711159,-0.0987459689565003,0.08599441587924958,67.78830841666422,-2.11480224609375,-0.3129991149902344,9.674681396484376,67.78830841666422,-0.0009922967292368412,-0.005382554605603218,-0.030864933505654335,67.78830841666422
2025-10-03 16:05:35.950768,-2.060148613750935,-0.21470223046839237,9.58883666932583,67.78830841666422,-0.04926469221711159,-0.0987459689565003,0.08599441587924958,67.78830841666422,-2.11480224609375,-0.3129991149902344,9.674681396484376,67.78830841666422,-0.0009922967292368412,-0.005382554605603218,-0.030864933505654335,67.78830841666422
2025-10-03 16:05:36.083102,-2.060148613750935,-0.21470223046839237,9.58883666932583,67.78830841666422,-0.04926469221711159,-0.0987459689565003,0.08599441587924958,67.78830841666422,-2.11480224609375,-0.3129991149902344,9.674681396484376,67.78830841666422,-0.0009922967292368412,-0.005382554605603218,-0.030864933505654335,67.78830841666422
2025-10-03 16:05:36.210977,-2.060148613750935,-0.21470223046839237,9.58883666932583,67.78830841666422,-0.04926469221711159,-0.0987459689565003,0.08599441587924958,67.78830841666422,-2.11480224609375,-0.3129991149902344,9.674681396484376,67.78830841666422,-0.0009922967292368412,-0.005382554605603218,-0.030864933505654335,67.78830841666422
2025-10-03 16:05:36.347677,-2.060148613750935,-0.21470223046839237,9.58883666932583,67.78830841666422,-0.04926469221711159,-0.0987459689565003,0.08599441587924958,67.78830841666422,-2.11480224609375,-0.3129991149902344,9.674681396484376,67.78830841666422,-0.0009922967292368412,-0.005382554605603218,-0.030864933505654335,67.78830841666422
2025-10-03 16:05:36.489816,-2.060148613750935,-0.21470223046839237,9.58883666932583,67.78830841666422,-0.04926469221711159,-0.0987459689565003,0.08599441587924958,67.78830841666422,-2.11480224609375,-0.3129991149902344,9.674681396484376,67.78830841666422,-0.0009922967292368412,-0.005382554605603218,-0.030864933505654335,67.78830841666422
2025-10-03 16:05:36.617714,-2.060148613750935,-0.21470223046839237,9.58883666932583,67.78830841666422,-0.04926469221711159,-0.0987459689565003,0.08599441587924958,67.78830841666422,-2.11480224609375,-0.3129991149902344,9.674681396484376,67.78830841666422,-0.0009922967292368412,-0.005382554605603218,-0.030864933505654335,67.78830841666422
2025-10-03 16:05:36.744509,-2.060148613750935,-0.21470223046839237,9.58883666932583,67.78830841666422,-0.04926469221711159,-0.0987459689565003,0.08599441587924958,67.78830841666422,-2.11480224609375,-0.3129991149902344,9.674681396484376,67.78830841666422,-0.0009922967292368412,-0.005382554605603218,-0.030864933505654335,67.78830841666422
2025-10-03 16:05:36.868226,-2.060148613750935,-0.21470223046839237,9.58883666932583,67.78830841666422,-0.04926469221711159,-0.0987459689565003,0.08599441587924958,67.78830841666422,-2.11480224609375,-0.3129991149902344,9.674681396484376,67.78830841666422,-0.0009922967292368412,-0.005382554605603218,-0.030864933505654335,67.78830841666422
2025-10-03 16:05:36.990608,-2.060148613750935,-0.21470223046839237,9.58883666932583,67.78830841666422,-0.04926469221711159,-0.0987459689565003,0.08599441587924958,67.78830841666422,-2.11480224609375,-0.3129991149902344,9.674681396484376,67.78830841666422,-0.0009922967292368412,-0.005382554605603218,-0.030864933505654335,67.78830841666422
2025-10-03 16:05:37.127268,-2.060148613750935,-0.21470223046839237,9.58883666932583,67.78830841666422,-0.04926469221711159,-0.0987459689565003,0.08599441587924958,67.78830841666422,-2.11480224609375,-0.3129991149902344,9.674681396484376,67.78830841666422,-0.0009922967292368412,-0.005382554605603218,-0.030864933505654335,67.78830841666422
2025-10-03 16:05:37.248359,-2.060148613750935,-0.21470223046839237,9.58883666932583,67.78830841666422,-0.04926469221711159,-0.0987459689565003,0.08599441587924958,67.78830841666422,-2.11480224609375,-0.3129991149902344,9.674681396484376,67.78830841666422,-0.0009922967292368412,-0.005382554605603218,-0.030864933505654335,67.78830841666422
2025-10-03 16:05:37.378470,-2.060148613750935,-0.21470223046839237,9.58883666932583,67.78830841666422,-0.04926469221711159,-0.0987459689565003,0.08599441587924958,67.78830841666422,-2.11480224609375,-0.3129991149902344,9.674681396484376,67.78830841666422,-0.0009922967292368412,-0.005382554605603218,-0.030864933505654335,67.78830841666422
2025-10-03 16:05:37.518421,-2.060148613750935,-0.21470223046839237,9.58883666932583,67.78830841666422,-0.04926469221711159,-0.0987459689565003,0.08599441587924958,67.78830841666422,-2.11480224609375,-0.3129991149902344,9.674681396484376,67.78830841666422,-0.0009922967292368412,-0.005382554605603218,-0.030864933505654335,67.78830841666422
2025-10-03 16:05:37.657159,-2.060148613750935,-0.21470223046839237,9.58883666932583,67.78830841666422,-0.04926469221711159,-0.0987459689565003,0.08599441587924958,67.78830841666422,-2.11480224609375,-0.3129991149902344,9.674681396484376,67.78830841666422,-0.0009922967292368412,-0.005382554605603218,-0.030864933505654335,67.78830841666422
2025-10-03 16:05:37.808472,-2.060148613750935,-0.21470223046839237,9.58883666932583,67.78830841666422,-0.04926469221711159,-0.0987459689565003,0.08599441587924958,67.78830841666422,-2.11480224609375,-0.3129991149902344,9.674681396484376,67.78830841666422,-0.0009922967292368412,-0.005382554605603218,-0.030864933505654335,67.78830841666422
2025-10-03 16:05:37.941782,-2.060148613750935,-0.21470223046839237,9.58883666932583,67.78830841666422,-0.04926469221711159,-0.0987459689565003,0.08599441587924958,67.78830841666422,-2.11480224609375,-0.3129991149902344,9.674681396484376,67.78830841666422,-0.0009922967292368412,-0.005382554605603218,-0.030864933505654335,67.78830841666422
2025-10-03 16:05:38.067111,-2.060148613750935,-0.21470223046839237,9.58883666932583,67.78830841666422,-0.04926469221711159,-0.0987459689565003,0.08599441587924958,67.78830841666422,-2.11480224609375,-0.3129991149902344,9.674681396484376,67.78830841666422,-0.0009922967292368412,-0.005382554605603218,-0.030864933505654335,67.78830841666422
2025-10-03 16:05:38.202560,-2.060148613750935,-0.21470223046839237,9.58883666932583,67.78830841666422,-0.04926469221711159,-0.0987459689565003,0.08599441587924958,67.78830841666422,-2.11480224609375,-0.3129991149902344,9.674681396484376,67.78830841666422,-0.0009922967292368412,-0.005382554605603218,-0.030864933505654335,67.78830841666422
2025-10-03 16:05:38.325689,-2.060148613750935,-0.21470223046839237,9.58883666932583,67.78830841666422,-0.04926469221711159,-0.0987459689565003,0.08599441587924958,67.78830841666422,-2.11480224609375,-0.3129991149902344,9.674681396484376,67.78830841666422,-0.0009922967292368412,-0.005382554605603218,-0.030864933505654335,67.78830841666422
2025-10-03 16:05:38.456904,-2.060148613750935,-0.21470223046839237,9.58883666932583,67.78830841666422,-0.04926469221711159,-0.0987459689565003,0.08599441587924958,67.78830841666422,-2.11480224609375,-0.3129991149902344,9.674681396484376,67.78830841666422,-0.0009922967292368412,-0.005382554605603218,-0.030864933505654335,67.78830841666422
2025-10-03 16:05:38.584942,-2.060148613750935,-0.21470223046839237,9.58883666932583,67.78830841666422,-0.04926469221711159,-0.0987459689565003,0.08599441587924958,67.78830841666422,-2.11480224609375,-0.3129991149902344,9.674681396484376,67.78830841666422,-0.0009922967292368412,-0.005382554605603218,-0.030864933505654335,67.78830841666422
2025-10-03 16:05:38.708586,-2.060148613750935,-0.21470223046839237,9.58883666932583,67.78830841666422,-0.04926469221711159,-0.0987459689565003,0.08599441587924958,67.78830841666422,-2.11480224609375,-0.3129991149902344,9.674681396484376,67.78830841666422,-0.0009922967292368412,-0.005382554605603218,-0.030864933505654335,67.78830841666422
2025-10-03 16:05:38.842699,-2.060148613750935,-0.21470223046839237,9.58883666932583,67.78830841666422,-0.04926469221711159,-0.0987459689565003,0.08599441587924958,67.78830841666422,-2.11480224609375,-0.3129991149902344,9.674681396484376,67.78830841666422,-0.0009922967292368412,-0.005382554605603218,-0.030864933505654335,67.78830841666422
2025-10-03 16:05:38.991516,-2.060148613750935,-0.21470223046839237,9.58883666932583,67.78830841666422,-0.04926469221711159,-0.0987459689565003,0.08599441587924958,67.78830841666422,-2.11480224609375,-0.3129991149902344,9.674681396484376,67.78830841666422,-0.0009922967292368412,-0.005382554605603218,-0.030864933505654335,67.78830841666422
2025-10-03 16:05:39.127334,-2.060148613750935,-0.21470223046839237,9.58883666932583,67.78830841666422,-0.04926469221711159,-0.0987459689565003,0.08599441587924958,67.78830841666422,-2.11480224609375,-0.3129991149902344,9.674681396484376,67.78830841666422,-0.0009922967292368412,-0.005382554605603218,-0.030864933505654335,67.78830841666422
2025-10-03 16:05:39.272557,-2.060148613750935,-0.21470223046839237,9.58883666932583,67.78830841666422,-0.04926469221711159,-0.0987459689565003,0.08599441587924958,67.78830841666422,-2.11480224609375,-0.3129991149902344,9.674681396484376,67.78830841666422,-0.0009922967292368412,-0.005382554605603218,-0.030864933505654335,67.78830841666422
2025-10-03 16:05:39.403141,-2.060148613750935,-0.21470223046839237,9.58883666932583,67.78830841666422,-0.04926469221711159,-0.0987459689565003,0.08599441587924958,67.78830841666422,-2.11480224609375,-0.3129991149902344,9.674681396484376,67.78830841666422,-0.0009922967292368412,-0.005382554605603218,-0.030864933505654335,67.78830841666422
2025-10-03 16:05:39.543617,-2.060148613750935,-0.21470223046839237,9.58883666932583,67.78830841666422,-0.04926469221711159,-0.0987459689565003,0.08599441587924958,67.78830841666422,-2.11480224609375,-0.3129991149902344,9.674681396484376,67.78830841666422,-0.0009922967292368412,-0.005382554605603218,-0.030864933505654335,67.78830841666422
2025-10-03 16:05:39.676588,-2.060148613750935,-0.21470223046839237,9.58883666932583,67.78830841666422,-0.04926469221711159,-0.0987459689565003,0.08599441587924958,67.78830841666422,-2.11480224609375,-0.3129991149902344,9.674681396484376,67.78830841666422,-0.0009922967292368412,-0.005382554605603218,-0.030864933505654335,67.78830841666422
2025-10-03 16:05:39.809120,-2.060148613750935,-0.21470223046839237,9.58883666932583,67.78830841666422,-0.04926469221711159,-0.0987459689565003,0.08599441587924958,67.78830841666422,-2.11480224609375,-0.3129991149902344,9.674681396484376,67.78830841666422,-0.0009922967292368412,-0.005382554605603218,-0.030864933505654335,67.78830841666422
2025-10-03 16:05:39.953702,-2.060148613750935,-0.21470223046839237,9.58883666932583,67.78830841666422,-0.04926469221711159,-0.0987459689565003,0.08599441587924958,67.78830841666422,-2.11480224609375,-0.3129991149902344,9.674681396484376,67.78830841666422,-0.0009922967292368412,-0.005382554605603218,-0.030864933505654335,67.78830841666422
2025-10-03 16:05:40.099408,-2.060148613750935,-0.21470223046839237,9.58883666932583,67.78830841666422,-0.04926469221711159,-0.0987459689565003,0.08599441587924958,67.78830841666422,-2.11480224609375,-0.3129991149902344,9.674681396484376,67.78830841666422,-0.0009922967292368412,-0.005382554605603218,-0.030864933505654335,67.78830841666422
2025-10-03 16:05:40.236916,-2.060148613750935,-0.21470223046839237,9.58883666932583,67.78830841666422,-0.04926469221711159,-0.0987459689565003,0.08599441587924958,67.78830841666422,-2.11480224609375,-0.3129991149902344,9.674681396484376,67.78830841666422,-0.0009922967292368412,-0.005382554605603218,-0.030864933505654335,67.78830841666422
2025-10-03 16:05:40.368008,-2.060148613750935,-0.21470223046839237,9.58883666932583,67.78830841666422,-0.04926469221711159,-0.0987459689565003,0.08599441587924958,67.78830841666422,-2.11480224609375,-0.3129991149902344,9.674681396484376,67.78830841666422,-0.0009922967292368412,-0.005382554605603218,-0.030864933505654335,67.78830841666422
2025-10-03 16:05:40.519352,-2.060148613750935,-0.21470223046839237,9.58883666932583,67.78830841666422,-0.04926469221711159,-0.0987459689565003,0.08599441587924958,67.78830841666422,-2.11480224609375,-0.3129991149902344,9.674681396484376,67.78830841666422,-0.0009922967292368412,-0.005382554605603218,-0.030864933505654335,67.78830841666422
2025-10-03 16:05:40.662633,-2.060148613750935,-0.21470223046839237,9.58883666932583,67.78830841666422,-0.04926469221711159,-0.0987459689565003,0.08599441587924958,67.78830841666422,-2.11480224609375,-0.3129991149902344,9.674681396484376,67.78830841666422,-0.0009922967292368412,-0.005382554605603218,-0.030864933505654335,67.78830841666422
2025-10-03 16:05:40.791507,-2.060148613750935,-0.21470223046839237,9.58883666932583,67.78830841666422,-0.04926469221711159,-0.0987459689565003,0.08599441587924958,67.78830841666422,-2.11480224609375,-0.3129991149902344,9.674681396484376,67.78830841666422,-0.0009922967292368412,-0.005382554605603218,-0.030864933505654335,67.78830841666422
2025-10-03 16:05:40.948440,-2.060148613750935,-0.21470223046839237,9.58883666932583,67.78830841666422,-0.04926469221711159,-0.0987459689565003,0.08599441587924958,67.78830841666422,-2.11480224609375,-0.3129991149902344,9.674681396484376,67.78830841666422,-0.0009922967292368412,-0.005382554605603218,-0.030864933505654335,67.78830841666422
2025-10-03 16:05:41.083336,-2.060148613750935,-0.21470223046839237,9.58883666932583,67.78830841666422,-0.04926469221711159,-0.0987459689565003,0.08599441587924958,67.78830841666422,-2.11480224609375,-0.3129991149902344,9.674681396484376,67.78830841666422,-0.0009922967292368412,-0.005382554605603218,-0.030864933505654335,67.78830841666422
