timestamp,gravity_x,gravity_y,gravity_z,gravity_time,lin_acc_x,lin_acc_y,lin_acc_z,lin_acc_time,acc_x,acc_y,acc_z,acc_time,gyro_x,gyro_y,gyro_z,gyro_time
2025-10-03 13:42:39.971446,0.3967685556784272,0.10762143932282925,-9.801381204128266,583.5627580416658,-0.009823249205946924,-0.010922534884884955,0.006500934362411499,583.5627580416658,0.39428009033203126,0.09819580078125001,-9.794282684326172,583.5577930416657,0.0012158318422734737,0.001293582608923316,-0.0010311296209692955,583.5627580416658
2025-10-03 13:42:40.119080,0.3971328737586737,0.10812510386109353,-9.80135839998722,583.7415030416632,-0.010786395259201527,0.000848248265683651,-0.0016027218103408815,583.7415030416632,0.39008880615234376,0.10927276611328125,-9.80416213989258,583.7365380416668,-0.0015786716248840094,-0.0004886172828264534,0.00048333872109651566,583.7415030416632
2025-10-03 13:42:40.252944,0.3973566028475762,0.10819519735872746,-9.801351383328438,583.8705970416668,-0.01654853392392397,-0.005808121534064413,0.0009320461750030518,583.8705970416668,0.389190673828125,0.10089019775390626,-9.80850311279297,583.8755620416669,-0.002848475705832243,-0.0014998700935393572,-0.0015668226405978203,583.8705970416668
2025-10-03 13:42:40.375812,0.397456663325429,0.10781847221776844,-9.801351383328438,583.9996906666638,-0.011708903163671494,-0.0030363768618553878,0.0033276504278182987,583.9996906666638,0.3849993896484375,0.11151809692382814,-9.795330505371094,583.9947256666637,0.0018980694003403187,-0.00024223884975071996,0.0013449944090098143,583.9996906666638
2025-10-03 13:42:40.560174,0.39723680801689626,0.10718062321655453,-9.801364831924438,584.1784356666649,-0.011489120945334434,-0.0023985552694648507,-0.002793799638748169,584.1784356666649,0.39398071289062503,0.10627899169921876,-9.79892303466797,584.183400666665,0.0017011426389217377,0.0010939919156953692,0.0009410365018993616,584.1784356666649
2025-10-03 13:42:40.710630,0.39699553728103637,0.10680204341188074,-9.801382373571396,584.3273906666655,-0.0052601552009582525,-0.006959666702896357,0.008596576452255249,584.3273906666655,0.3896397399902344,0.10762619018554688,-9.797725524902344,584.3323556666655,0.0006169038824737072,-0.00010061447392217815,-0.0021780896931886673,584.3273906666655
2025-10-03 13:42:40.833264,0.3968553137406707,0.1071934140007943,-9.801383543014527,584.456483666665,-0.006916196309030056,-0.003908196715638042,0.0023108196258544923,584.456483666665,0.3897894287109375,0.0999920654296875,-9.801467742919922,584.4515186666649,-0.002463217591866851,-5.292211426422e-05,0.0015200080815702677,584.456483666665
2025-10-03 13:42:40.966412,0.39672349557280545,0.10751148425973953,-9.801387051343918,584.5855776666649,-0.005137765668332577,-0.00527406974695623,0.009947283267974854,584.5855776666649,0.39532791137695317,0.10343490600585938,-9.7956298828125,584.5806126666648,0.0015629278495907784,0.000247182440944016,0.0007260572165250778,584.5855776666649
2025-10-03 13:42:41.098080,0.39659598972648386,0.10724831387400628,-9.801395822167397,584.7146716666648,-0.006507147029042244,-0.0005202468764036895,0.005315119028091431,584.7146716666648,0.3914360046386719,0.1071771240234375,-9.794432373046876,584.7097056666644,-0.000496396329253912,-0.0025122424121946096,0.0005988851189613342,584.7146716666648
2025-10-03 13:42:41.231365,0.3965733683109284,0.10688703817315401,-9.801396991610527,584.8536946666645,-0.009328684397041797,-0.006745293159037829,0.006965788006782532,584.8536946666645,0.38694534301757816,0.10223739624023438,-9.802665252685548,584.8487296666644,-0.0007956689223647118,-0.0006759612588211894,0.0020182530861347914,584.8536946666645
2025-10-03 13:42:41.365536,0.3965148596093059,0.10672149801626803,-9.801399330496789,584.9827881666642,-0.005078818425536156,-0.0052325179707258945,0.004425172805786133,584.9827881666642,0.3879931640625,0.10133926391601562,-9.787546691894532,584.9877531666643,0.00271092401817441,-0.0003762105479836464,0.0016306256875395775,584.9827881666642
2025-10-03 13:42:41.487756,0.3962530139833689,0.1063999011553824,-9.801415117979051,585.1118821666641,-0.005715251304209233,-0.003863164018839598,0.0006969881057739258,585.1118821666641,0.38514907836914064,0.10148895263671875,-9.799821166992189,585.1069171666641,0.0008001895621418953,0.0008742981008253992,0.0017255493439733982,585.1118821666641
2025-10-03 13:42:41.645517,0.3969909325987101,0.1060112349037081,-9.801392898559572,585.2707661666645,-0.011093300990760327,-0.0034744338132441047,0.005610988140106202,585.2707661666645,0.38769378662109377,0.10538085937500001,-9.795480194091798,585.2658011666645,0.00043461425229907036,-0.0009389290353283286,-0.0004893988370895386,585.2707661666645
2025-10-03 13:42:41.774262,0.3969390020146966,0.10590000989846886,-9.801395237445831,585.3998601666644,-0.0064010931551456455,0.003372756214812398,-0.0009718072414398194,585.3998601666644,0.3878434753417969,0.10612930297851562,-9.80086898803711,585.3948951666644,0.0011541913263499737,-0.001525578903965652,0.001787905115634203,585.3998601666644
2025-10-03 13:42:41.931798,0.39720859520137314,0.1056718405801803,-9.801385881900789,585.5488141666647,-0.008317262269556524,0.002852481929585338,-8.186101913452149e-05,585.5488141666647,0.38589752197265625,0.10792556762695313,-9.797875213623048,585.5438491666646,0.0010503046214580536,0.002245810814201832,-7.369648665189743e-05,585.5488141666647
2025-10-03 13:42:42.072585,0.39747716512531045,0.10497008333913982,-9.801384127736092,585.6878381666647,-0.011280156075954438,-0.0058761319611221555,0.002159961462020874,585.6878381666647,0.38350250244140627,0.10044113159179688,-9.795180816650392,585.6928031666648,0.002346754539757967,0.0009299942175857723,0.0005253972485661507,585.6878381666647
2025-10-03 13:42:42.218675,0.39795130122452976,0.10475792990997435,-9.801369509696961,585.836792166665,-0.00965865008533001,-0.01284901885315776,0.0004970133304595947,585.836792166665,0.39053787231445314,0.09520202636718751,-9.803862762451173,585.8417581666654,0.0008706510998308659,0.0006526435608975589,-0.0025922334752976894,585.836792166665
2025-10-03 13:42:42.363825,0.3980746043846011,0.10463798889890313,-9.801360154151917,585.9758166666652,0.002342650406062603,-0.00030497797764837746,0.004085449576377869,585.9758166666652,0.4004173278808594,0.10508148193359376,-9.797126770019531,585.9708516666651,-0.0032887717243283987,0.0012127954978495836,0.0005137068219482899,585.9758166666652
2025-10-03 13:42:42.520831,0.3980447104945779,0.10442071915604174,-9.80136834025383,586.1446316666661,-0.0052613611891865735,0.0009601767640560866,0.0064833927154541015,586.1446316666661,0.39592666625976564,0.10867401123046876,-9.793833618164063,586.139666666666,-0.0007776413112878799,0.00170287920627743,0.0007654489018023014,586.1446316666661
2025-10-03 13:42:42.653262,0.3975387070700526,0.10362754435278476,-9.80139172911644,586.2637956666658,-0.012838804498314859,0.002052674191072583,0.004566675424575806,586.2637956666658,0.3887416076660156,0.10972183227539063,-9.797725524902344,586.2687606666659,0.0009495341219007969,-0.0013735844986513257,-0.0008162693120539188,586.2637956666658
2025-10-03 13:42:42.804561,0.3976804289594293,0.10371367201209068,-9.801388220787048,586.4226796666662,-0.008340029865503312,-0.002224719375371933,-0.0011285126209259033,586.4226796666662,0.3852987670898438,0.09729766845703125,-9.79997085571289,586.4276446666663,3.131432458758354e-05,-0.0006177473696880043,0.0031095659360289574,586.4226796666662
2025-10-03 13:42:42.942706,0.3976789306104183,0.10293569083325566,-9.801394652724266,586.5617036666663,-0.010134869255125523,0.008133330792188646,-0.00426320493221283,586.5617036666663,0.38934036254882814,0.10972183227539063,-9.804611206054688,586.5567386666662,-0.00028662383556365967,0.0009798714891076088,-0.0008386760018765926,586.5617036666663
2025-10-03 13:42:43.092142,0.3979624840244651,0.10275698530487716,-9.801386466622352,586.7106576666665,-0.006825856827199459,-7.0513766258955e-05,0.008001329898834229,586.7106576666665,0.38859191894531253,0.09834548950195313,-9.794731750488282,586.7156226666666,0.0005347630940377712,0.0007123589748516679,0.0018260909710079432,586.7106576666665
2025-10-03 13:42:43.210974,0.3981499969214201,0.10275602599605918,-9.8013806194067,586.8298216666662,-0.007911465503275395,-0.0011173755023628474,0.003952717781066895,586.8298216666662,0.38290374755859374,0.10208770751953125,-9.792037353515626,586.8347866666663,0.0016153063625097275,0.00024081685114651918,0.0008415067568421364,586.8298216666662
2025-10-03 13:42:43.347592,0.3980679166316986,0.1030324348434806,-9.80137944996357,586.9688454583302,-0.006033120565116405,0.004743444062769413,0.015628437995910644,586.9688454583302,0.3933819580078125,0.1095721435546875,-9.787097625732422,586.9738104583303,0.0015177829191088676,0.0021355857606977224,0.0009717501234263182,586.9688454583302
2025-10-03 13:42:43.484644,0.3979976038634777,0.10282241016626359,-9.801385297179223,587.1078694583302,-0.011052260845899583,0.005701912343502045,-0.0018792951107025147,587.1078694583302,0.3841012573242188,0.10867401123046876,-9.799521789550782,587.1029044583302,-0.002406155923381448,-0.0011630408698692918,0.0017694756388664246,587.1078694583302
2025-10-03 13:42:43.640227,0.39809726234525444,0.10318220579065383,-9.801376526355744,587.2369624583334,-0.01624133583158255,0.004443993531167508,0.003800690174102783,587.2369624583334,0.38350250244140627,0.10463241577148438,-9.800569610595703,587.2319974583334,-0.0014553572982549667,0.0016394590493291616,0.0007012849673628807,587.2369624583334
2025-10-03 13:42:43.765909,0.3985327337309718,0.10348767712712288,-9.801353137493134,587.3859174583304,-0.002157074399292469,0.001743475254625082,0.014407539367675783,587.3859174583304,0.38934036254882814,0.108973388671875,-9.787846069335938,587.3809524583303,-0.001483541913330555,0.0028641775716096163,-0.002674535382539034,587.3859174583304
2025-10-03 13:42:43.948460,0.39894167337566616,0.1038834514003247,-9.80133267223835,587.5448014583308,-0.0037635238096117977,0.002994267772883177,0.0061536097526550294,587.5448014583308,0.3908372497558594,0.10463241577148438,-9.790690155029298,587.5398364583307,0.002018882893025875,0.0004752074019052088,0.0007694265805184841,587.5448014583308
2025-10-03 13:42:44.099549,0.3985989169031382,0.10391666175797583,-9.801350213885307,587.6838254583308,-0.011204471178352833,0.0016139046102762223,-0.0020652365684509276,587.6838254583308,0.3872447204589844,0.11076965332031251,-9.802216186523438,587.6887904583309,-0.0006513167172670364,-0.002942226594313979,0.0003291838802397251,587.6838254583308
2025-10-03 13:42:44.275332,0.39854742486029865,0.1033006027713418,-9.801357815265655,587.8725014583324,-0.007859827280044557,-0.0007638108171522617,-0.0035539376735687256,587.8725014583324,0.39697448730468754,0.10253677368164063,-9.799372100830078,587.8675364583323,0.0001282189041376114,-0.0008695748401805758,0.0028974185697734356,587.8725014583324
2025-10-03 13:42:44.423208,0.3981842762231827,0.10284825668670237,-9.801378865242006,588.0214554583326,-0.012885399498045446,0.0037301398627460004,0.015476410388946534,588.0214554583326,0.3879931640625,0.1071771240234375,-9.786648559570313,588.0264204583327,2.116011455655098e-05,0.001437685452401638,0.00021283328533172607,588.0214554583326
2025-10-03 13:42:44.586742,0.39816143553704025,0.103402390005067,-9.801372433304786,588.1902704583299,-0.006575742177665234,0.0016790827922523023,0.0064904093742370605,588.1902704583299,0.39517822265625,0.10328521728515626,-9.794432373046876,588.1853054583335,0.0009374571964144707,-7.724296301603317e-05,0.00015824055299162865,588.1902704583299
2025-10-03 13:42:44.741371,0.39802515886724,0.10434226596727968,-9.801365416646004,588.3590854583308,-0.003745141625404358,0.0017870187386870384,0.006634835600852967,588.3590854583308,0.39966888427734376,0.10373428344726562,-9.789043579101563,588.3640504583309,0.001661493442952633,-0.0014076821971684694,-2.766679972410202e-05,588.3590854583308
2025-10-03 13:42:44.868469,0.3974432147294283,0.10403939846903086,-9.8013940680027,588.4782484583302,-0.0078034747391939165,-0.0004548128787428141,0.007710138559341431,588.4782484583302,0.38634658813476563,0.10298583984375001,-9.786199493408203,588.4832134583303,-0.00019190507009625435,0.0005147072952240705,0.0015388273168355227,588.4782484583302
2025-10-03 13:42:45.026824,0.39759217254817486,0.10419633225537837,-9.801387051343918,588.6470634583311,-0.00780270729213953,-0.0003123418148607016,0.009647905826568604,588.6470634583311,0.39248382568359375,0.10044113159179688,-9.789342956542969,588.642098458331,-0.0008866949938237667,0.0008348952978849411,-0.0013321763835847378,588.6470634583311
2025-10-03 13:42:45.171459,0.3976929273828864,0.10480477158911526,-9.801375941634179,588.776157458331,-0.00401159193366766,0.001923286272212863,0.00020699143409729005,588.776157458331,0.39278320312500004,0.10448272705078125,-9.79847396850586,588.7711924583309,-0.0008454802446067333,-0.0005564301973208785,0.0018591275438666344,588.776157458331
2025-10-03 13:42:45.310725,0.39741997204720975,0.10386549862101675,-9.801397576332093,588.9251114583312,-0.006582685746252537,0.0015153790265321732,-0.007855149507522583,588.9251114583312,0.39697448730468754,0.10493179321289063,-9.794432373046876,588.9300764583313,0.0012073707766830921,0.0005604453617706895,-0.0007049725390970707,588.9251114583312
2025-10-03 13:42:45.436231,0.3974404373019934,0.1031588534731418,-9.801404592990876,589.0542054583311,-0.016632295288145544,-0.0019692691415548326,0.006372295618057251,589.0542054583311,0.3814068603515625,0.099393310546875,-9.798623657226562,589.0591704583312,-0.0013475706800818443,-0.0012172916904091835,-0.0004889871925115585,589.0542054583311
2025-10-03 13:42:45.559155,0.3974921851605177,0.10406718187965454,-9.801392898559572,589.183299458331,-0.004409568049013615,0.0016130640730261804,0.00905499815940857,589.183299458331,0.39278320312500004,0.10702743530273438,-9.792037353515626,589.1783334583306,-0.0012813424691557884,-0.000799297820776701,0.0003493684343993664,589.183299458331
2025-10-03 13:42:45.686876,0.39696301214396956,0.10447982171550393,-9.801408686041832,589.3024624583304,-0.008670470640063287,-0.0044877471495419746,0.0056285297870635985,589.3024624583304,0.39053787231445314,0.10732681274414063,-9.797276458740235,589.3074274583305,-0.0012469296343624592,-0.0007060924544930458,-0.0027125426568090916,589.3024624583304
2025-10-03 13:42:45.810607,0.3966678373888135,0.10418356887996197,-9.801421549916268,589.4315564583303,-0.015710152834653855,0.0014966405276209116,0.00863750696182251,589.4315564583303,0.38455032348632817,0.10223739624023438,-9.796228637695313,589.4265914583302,-0.00010167434811592102,0.0024890368804335594,-0.00029060011729598045,589.4315564583303
2025-10-03 13:42:45.946325,0.3966200729459524,0.10407854740507902,-9.801424473524094,589.5705804583304,-0.002340092249214649,-0.001242423690855503,0.00504848599433899,589.5705804583304,0.39158569335937504,0.1023870849609375,-9.799072723388672,589.5656154583303,-0.0012503145262598991,0.0002555951359681785,-0.0031935032457113266,589.5705804583304
2025-10-03 13:42:46.074033,0.396510803103447,0.10372737642377615,-9.801436752676965,589.6897434583334,0.0012122374400496483,0.0001566231530159712,-0.0003321218490600586,589.6897434583334,0.3992198181152344,0.10732681274414063,-9.797276458740235,589.6947084583335,0.0002477685920894146,-0.001494112890213728,0.0019357067067176104,589.6897434583334
2025-10-03 13:42:46.231086,0.3963910082727671,0.10398165721446276,-9.801435583233834,589.8486284583305,-0.01273885365575552,-0.00563617684878409,0.012991928458213807,589.8486284583305,0.3849993896484375,0.09984237670898438,-9.78844482421875,589.8436634583304,-8.27261246740818e-05,0.00037736777449026704,0.0001180572435259819,589.8486284583305
2025-10-03 13:42:46.366009,0.3960433182120323,0.10461475535295904,-9.801445523500442,589.9777220833312,-0.008199806325137615,-0.00043140574358403684,0.004766650199890137,589.9777220833312,0.3998185729980469,0.101788330078125,-9.791588287353516,589.9826870833313,-0.0009991787374019623,0.0006778573151677847,-0.002188907004892826,589.9777220833312
2025-10-03 13:42:46.537278,0.39578728325664997,0.10487318401224911,-9.801450201272965,590.1564670833322,-0.002405398339033127,-0.003983013667166233,0.011959310173988344,590.1564670833322,0.39248382568359375,0.10433303833007813,-9.794432373046876,590.1515020833322,0.0013366634957492352,-0.0003626500547397882,-0.0007971050217747688,590.1564670833322
2025-10-03 13:42:46.673919,0.3956032421439886,0.10533410905860364,-9.801451955437662,590.2954910833323,-0.010603925585746765,-0.0015998438838869334,0.005974100232124329,590.2954910833323,0.3848497009277344,0.10268646240234376,-9.794432373046876,590.2905260833322,-0.0011740997433662415,0.0007449700497090816,-0.003106213640421629,590.2954910833323
2025-10-03 13:42:46.799326,0.39556856084614994,0.1052638511080295,-9.801456048488618,590.4245850833322,-0.003982867486774922,0.00041638570837676525,0.006125543117523194,590.4245850833322,0.39547760009765626,0.10223739624023438,-9.793085174560547,590.4196200833321,-0.0002623586915433407,0.00027238953043706715,-0.00010784575715661049,590.4245850833322
2025-10-03 13:42:46.934145,0.39563123568892483,0.10525254040025175,-9.801455463767052,590.5536790833321,0.0028401753678917886,0.0026730454992502928,0.0010337877273559571,590.5536790833321,0.39547760009765626,0.11002120971679688,-9.795031127929688,590.5586440833322,-0.0018067131750285625,-0.0012049456126987934,0.0023073949851095676,590.5536790833321
2025-10-03 13:42:47.059567,0.39518838219344615,0.10583170711062849,-9.801467158198356,590.6827720833317,-0.01632615700364113,-0.007486199336126447,0.008978984355926515,590.6827720833317,0.3776646423339844,0.10448272705078125,-9.797725524902344,590.6877380833321,-0.0017001575324684381,-0.001971048768609762,0.001193387433886528,590.6827720833317
2025-10-03 13:42:47.204318,0.39496585909277204,0.10594042877666653,-9.80147183597088,590.8019360833314,0.0003620157390832901,-0.002655220627784729,0.010034991502761841,590.8019360833314,0.39038818359375,0.10029144287109376,-9.791438598632814,590.8069010833315,0.0015613194555044174,-0.00021621168707497418,0.0010809795930981636,590.8019360833314
2025-10-03 13:42:47.336562,0.3945609394088388,0.10551945665851235,-9.801496394276619,590.9508906666633,0.0007670450583100319,-0.0038807787559926514,0.004816936254501343,590.9508906666633,0.39817199707031253,0.10044113159179688,-9.799072723388672,590.9459256666632,0.0012683006934821606,-0.0036675166338682175,-0.002925335895270109,590.9508906666633
2025-10-03 13:42:47.491667,0.39420623268932103,0.10459033409133554,-9.80151744425297,591.0899156666637,-0.010853492058813573,-0.002652324428781867,0.007684995532035828,591.0899156666637,0.38559814453125,0.10523117065429688,-9.782008209228517,591.0948806666638,-0.0005916035734117031,0.0006925762863829732,0.0011009916197508574,591.0899156666637
2025-10-03 13:42:47.617044,0.3940195603296161,0.10460909999907017,-9.801525045633317,591.238869666664,-0.01650460671633482,-0.004317657127976418,0.003949794173240662,591.238869666664,0.38619689941406254,0.10268646240234376,-9.790241088867187,591.243834666664,0.0003832438960671425,0.0016543443780392408,-0.0005325297825038433,591.238869666664
2025-10-03 13:42:47.742140,0.39350661333650355,0.1046226856391877,-9.801549019217491,591.3580326666633,0.003468020148575306,-0.003582771755754948,0.014598158597946168,591.3580326666633,0.39113662719726566,0.10059082031250001,-9.793234863281251,591.3629986666638,0.0005731522105634212,0.0005141408764757216,-8.75093974173069e-05,591.3580326666633
2025-10-03 13:42:47.876663,0.3935666934773326,0.10462723550386728,-9.801543756723404,591.4970576666637,-0.010812634639441968,0.0024001997988671066,0.011452356576919556,591.4970576666637,0.3826043701171875,0.11256591796875001,-9.799671478271485,591.5020226666638,-0.00010432349517941475,-0.0007894773734733462,-0.0011139963753521442,591.4970576666637
2025-10-03 13:42:48.039153,0.3934785101562739,0.10418297502212227,-9.801550188660622,591.6360816666638,-0.00638351496309042,0.0002997337561100722,0.005023927688598633,591.6360816666638,0.38709503173828125,0.10433303833007813,-9.794582061767578,591.6311166666637,0.00010467739775776863,-0.0014040640089660883,0.0019447545055299997,591.6360816666638
2025-10-03 13:42:48.165033,0.39303236760199073,0.1041828197054565,-9.801572408080101,591.785035666664,-0.0077334908768534666,-0.005388236632570625,-0.005136194229125977,591.785035666664,0.3887416076660156,0.10283615112304688,-9.806856536865235,591.780070666664,0.0005708546377718449,0.0011460855603218079,-0.0007930519059300423,591.785035666664
2025-10-03 13:42:48.302127,0.3929377888888121,0.10377984604798259,-9.801577085852623,591.9141289166655,0.001491953618824482,-0.002290902547538281,-0.003182639479637146,591.9141289166655,0.38574783325195316,0.1047821044921875,-9.797725524902344,591.9190939166656,0.001788888592272997,-0.00034713430795818567,-0.0019154082983732224,591.9141289166655
2025-10-03 13:42:48.434560,0.393008101657033,0.10337985081598162,-9.801579424738884,592.0531529166656,0.004864517971873284,-0.005483436612412334,0.010889854431152344,592.0531529166656,0.39517822265625,0.10089019775390626,-9.798623657226562,592.0581179166657,-0.000995248556137085,0.0008947360329329967,-0.0007533850148320198,592.0531529166656
2025-10-03 13:42:48.569217,0.393300316259265,0.10364686757326126,-9.801561883091926,592.1921769166656,-0.007851970084011554,-0.01203740704804659,0.008030565977096558,592.1921769166656,0.3842509460449219,0.09669891357421875,-9.795779571533204,592.1872119166655,0.0006016851402819157,-0.00046788822510279715,-0.0003797016106545925,592.1921769166656
2025-10-03 13:42:48.703143,0.39306566018611194,0.10352270560339094,-9.801572992801667,592.3212709166655,-0.009114164672791959,0.002456881245598197,-4.1515231132507324e-05,592.3212709166655,0.3882925415039063,0.1047821044921875,-9.800120544433595,592.3163059166654,0.0013496256433427334,0.0010993665782734752,-0.0006361291743814945,592.3212709166655
2025-10-03 13:42:48.828032,0.39293607126921415,0.10340605365112425,-9.80158117890358,592.4503649166654,0.001044605076313019,-0.004461809266358615,0.00789841890335083,592.4503649166654,0.3945794677734375,0.09714797973632813,-9.79278579711914,592.4453999166653,9.997421875596046e-05,-0.00041773461271077394,0.0005592540837824345,592.4503649166654
2025-10-03 13:42:48.955491,0.3928002331405878,0.10302186417393387,-9.80159228861332,592.5695289166651,-0.009148005433380605,0.0011614854354411364,0.0011717820167541505,592.5695289166651,0.38200561523437504,0.10208770751953125,-9.798324279785156,592.5744939166652,-9.025027975440025e-05,0.00022499810438603163,6.044749170541763e-05,592.5695289166651
2025-10-03 13:42:49.082855,0.39240836005657914,0.10267914424650372,-9.801612753868104,592.7085529166652,-0.00336733840405941,0.004198620608076453,0.003137615919113159,592.7085529166652,0.38619689941406254,0.11032058715820313,-9.796378326416017,592.7035879166651,9.087240323424339e-05,0.00037090491969138384,-0.0003620479255914688,592.7085529166652
2025-10-03 13:42:49.214265,0.3919429947808385,0.10293757290579379,-9.801627371907236,592.8376469166651,-0.0038001054525375368,-0.0007001583930104972,0.012283830642700196,592.8376469166651,0.38859191894531253,0.10448272705078125,-9.794881439208984,592.832681916665,-0.0001961197704076767,-0.0017172798980027437,0.0003697504289448261,592.8376469166651
2025-10-03 13:42:49.339862,0.39141166560351853,0.10312944380566479,-9.801643159389496,592.956811291664,-0.0007241776585578919,-0.0010417545586824417,-0.0025160568952560425,592.956811291664,0.3836521911621094,0.10328521728515626,-9.802216186523438,592.9617762916641,0.001764213666319847,0.0006903613684698939,-0.00013387855142354965,592.956811291664
2025-10-03 13:42:49.467334,0.3915696866065264,0.10228140567429364,-9.80164900660515,593.085905291664,-0.006570296958088875,-0.0004930755961686373,-0.00999756932258606,593.085905291664,0.38619689941406254,0.09864486694335937,-9.810748443603517,593.090870291664,-0.00016964320093393326,0.0010936122853308916,0.0006290609017014503,593.085905291664
2025-10-03 13:42:49.591572,0.3914698088541627,0.10237139797769487,-9.801650760769844,593.2149992916638,0.0011636324599385262,-0.004624681631103158,0.0061717361211776735,593.2149992916638,0.389190673828125,0.09924362182617188,-9.801168365478516,593.2100332916634,-0.0004210476763546467,0.00014820718206465244,0.0006074816919863224,593.2149992916638
2025-10-03 13:42:49.717065,0.391325126811862,0.10231970493681729,-9.801654853820802,593.3341622916632,0.00400267492979765,-0.005171752609312534,0.006327272057533265,593.3341622916632,0.39667510986328125,0.101788330078125,-9.792037353515626,593.3391272916633,-0.0023575788363814354,-0.002962310565635562,-0.0005193725228309631,593.3341622916632
2025-10-03 13:42:49.838866,0.3912524020671845,0.10221979977563024,-9.80166362464428,593.4632562916668,0.0019799768552184105,0.004807653799653053,-0.001901514530181885,593.4632562916668,0.3936813354492188,0.104183349609375,-9.806706848144533,593.4582912916667,-0.0010439441539347172,-0.00190626154653728,-2.20397487282753e-05,593.4632562916668
2025-10-03 13:42:49.982933,0.3911655343696475,0.1023768066521734,-9.801661870479585,593.5923502916667,-0.004669330604374409,-0.002235070774331689,-0.003396647572517395,593.5923502916667,0.38559814453125,0.10029144287109376,-9.803713073730469,593.5973152916667,-0.0015450192149728537,-0.0023240381851792336,0.0009839448612183332,593.5923502916667
2025-10-03 13:42:50.133084,0.39084240261465314,0.10331096330657602,-9.801665378808975,593.7512352916638,0.006880491748452187,-0.003019520435482264,0.005138533115386963,593.7512352916638,0.3921844482421875,0.10253677368164063,-9.796677703857423,593.7562002916638,0.0020232396200299263,0.0002881396794691682,0.0014797181356698275,593.7512352916638
2025-10-03 13:42:50.284093,0.38988883137702945,0.10293344330973923,-9.801710987091065,593.9001902916643,5.039568990468979e-05,0.005141831310465932,0.0066775202751159675,593.9001902916643,0.3918850708007813,0.1047821044921875,-9.795480194091798,593.9051552916644,-0.0005263951607048512,0.0014657169813290238,-0.0009400392882525921,593.9001902916643
2025-10-03 13:42:50.404107,0.38974824238568545,0.10254146059043706,-9.80172034263611,594.0193547083327,0.003484136536717415,-0.0037468683812767268,0.004142167568206788,594.0193547083327,0.3938310241699219,0.09954299926757813,-9.797426147460937,594.0243197083328,-0.0023528686724603176,-0.0018981343600898981,0.0016696127131581306,594.0193547083327
2025-10-03 13:42:50.555505,0.38976231224834923,0.10212905829772354,-9.801722681522369,594.1782397083334,2.7116462588310243e-05,-0.002735738614574075,0.004595911502838135,594.1782397083334,0.3929328918457031,0.09909393310546875,-9.797575836181641,594.1732747083333,0.0015665334649384022,-0.0009344586869701743,-0.0009814673103392124,594.1782397083334
2025-10-03 13:42:50.688102,0.38960853047668936,0.10163166124373675,-9.80173379123211,594.3073337083333,-0.0007171975448727608,0.00015666883438825608,0.012839316129684449,594.3073337083333,0.38814285278320315,0.10463241577148438,-9.787546691894532,594.3122987083334,-0.0014003526885062456,0.0011214688420295715,-0.0002621440216898918,594.3073337083333
2025-10-03 13:42:50.815326,0.38964770682156086,0.10162118193693459,-9.801733206510544,594.4364277083332,-0.0033010821416974067,-0.007466967478394509,0.007748730182647706,594.4364277083332,0.38634658813476563,0.09295669555664063,-9.805808715820312,594.4413927083333,0.0010179802775382996,0.0015333397313952446,-0.00046149687841534615,594.4364277083332
2025-10-03 13:42:50.935383,0.3896758100017905,0.10116894548758865,-9.801738469004631,594.5555917083329,-0.00737070769071579,0.010798245007172228,0.008350993394851685,594.5555917083329,0.38739440917968754,0.11061996459960938,-9.795330505371094,594.560556708333,-0.0005873148329555988,-0.002097436925396323,-0.0015763132832944393,594.5555917083329
2025-10-03 13:42:51.060904,0.3888764225319028,0.10118937419727445,-9.801766535639763,594.6846857083328,-0.004176446869969369,0.0031436549965292216,0.001047821044921875,594.6846857083328,0.38514907836914064,0.104183349609375,-9.795031127929688,594.6797207083328,0.0004380829632282257,0.0002641122555360198,-0.000658384058624506,594.6846857083328
2025-10-03 13:42:51.186454,0.3887844750657678,0.10162218692712487,-9.801768874526024,594.8038497083326,-0.013215365186333657,0.0009146141633391381,0.001346029043197632,594.8038497083326,0.384400634765625,0.10283615112304688,-9.79368392944336,594.8088147083326,0.00042141787707805634,0.0007260079146362841,0.0008496502414345741,594.8038497083326
2025-10-03 13:42:51.339550,0.38865386288613085,0.10183298818767071,-9.801767120361328,594.9627343333304,-0.0021576956659555436,-0.0015415635891258717,0.009432728290557862,594.9627343333304,0.38664596557617187,0.10508148193359376,-9.798174591064454,594.9577693333304,0.0005551851354539394,-0.0005587460473179817,-0.0006293063051998615,594.9627343333304
2025-10-03 13:42:51.481885,0.3889084725826979,0.1025752191245556,-9.80174373149872,595.0918283333303,-0.0035969512537121773,-0.0033660319168120623,0.005672383904457092,595.1017583333305,0.389190673828125,0.09864486694335937,-9.797875213623048,595.0967933333304,-0.00195593130774796,-0.0006555207073688507,0.0021231218706816435,595.1017583333305
2025-10-03 13:42:51.599547,0.3892174979299307,0.1025001920387149,-9.801741392612458,595.2209223333302,0.000871344767510891,-0.003256561076268554,0.011798511743545534,595.2209223333302,0.3920347595214844,0.10687774658203125,-9.7956298828125,595.2258883333307,0.001246690284460783,0.0012761213583871722,2.1243002265691757e-05,595.2209223333302
2025-10-03 13:42:51.744973,0.38900831378996376,0.10210568770766258,-9.801752502322197,595.3698773333308,-0.0031107187271118167,-0.00016765977256000042,-0.0013624012470245363,595.3698773333308,0.38470001220703126,0.10732681274414063,-9.801018676757813,595.3649123333307,0.001784319058060646,0.0022697211243212223,0.0005307630635797977,595.3698773333308
2025-10-03 13:42:51.894125,0.38950192842632536,0.10192031269893051,-9.8017372995615,595.5089023333312,0.0044788940995931625,0.002861819202080369,0.005655426979064942,595.5089023333312,0.3972738647460938,0.10343490600585938,-9.800569610595703,595.5039373333311,0.00285102566704154,-0.0017759489128366113,-6.928527727723122e-05,595.5089023333312
2025-10-03 13:42:52.035346,0.38980126932263376,0.1021356272790581,-9.801722096800805,595.6578573333318,0.0008864013478159905,0.0018980610184371471,0.0026476192474365235,595.6578573333318,0.39113662719726566,0.10612930297851562,-9.800719299316407,595.6628223333319,-0.001342396019026637,-0.0016409631352871656,-0.001855254638940096,595.6578573333318
2025-10-03 13:42:52.181891,0.39024127230048183,0.10173062536865474,-9.801708648204803,595.7968813333318,-0.004493439048528672,0.006644026692956687,0.003532887697219849,595.7968813333318,0.3921844482421875,0.10942245483398438,-9.804012451171875,595.8018463333319,0.00020865490660071373,-0.0004475763998925686,0.0009907437488436699,595.806811333332
2025-10-03 13:42:52.318100,0.3899174827337265,0.1017453073617071,-9.801718588471413,595.9259750416641,-0.0011759116128087044,0.0015399007871747018,0.009233338236808778,595.9259750416641,0.3894900512695313,0.10777587890625001,-9.800120544433595,595.9309410416645,-0.0011456366628408432,0.00012179094483144581,-0.0003005382604897022,595.9259750416641
2025-10-03 13:42:52.437441,0.3902657940611243,0.10159921833314002,-9.801706309318543,596.0650000416645,-0.00032671317458152774,0.008272293526679278,-0.009490031003952027,596.0650000416645,0.396375732421875,0.11331436157226563,-9.811047821044923,596.0600350416644,-0.0005827182903885841,0.00041784511995501816,-0.002969061490148306,596.0650000416645
2025-10-03 13:42:52.571566,0.39029250852763653,0.10172543596476318,-9.801707478761674,596.1940940416644,0.0011436057463288308,0.0012604404240846635,0.007721832990646362,596.1940940416644,0.3936813354492188,0.10014175415039063,-9.793534240722657,596.1891290416643,-0.000710565596818924,-0.0029242427553981543,-0.0009149126708507538,596.1940940416644
2025-10-03 13:42:52.700077,0.3904541474953294,0.10177131833508611,-9.801696953773499,596.3132580416641,0.006969296336174011,0.004357957234606147,0.008762637376785279,596.3132580416641,0.40655456542968754,0.1035845947265625,-9.799072723388672,596.3182230416642,-0.0005925786681473255,-0.0007391305407509208,-0.002005848567932844,596.3132580416641
2025-10-03 13:42:52.843891,0.3906183080747724,0.10225220614112913,-9.80168935239315,596.4622130416647,-0.0038225441426038742,0.0053740023169666536,0.0033621490001678467,596.4622130416647,0.38470001220703126,0.10807525634765626,-9.794731750488282,596.4572480416646,-0.0019521007779985666,-0.0016525669489055872,6.800983101129532e-06,596.4622130416647
2025-10-03 13:42:52.978039,0.3906722486391664,0.1014168674312532,-9.801692276000978,596.601238041665,-0.0016313000768423081,-0.001125424560159445,-0.00022336363792419434,596.601238041665,0.39173538208007813,0.09984237670898438,-9.806706848144533,596.596273041665,0.0006542960181832314,0.0009190000128000975,0.00016364501789212227,596.601238041665
2025-10-03 13:42:53.108953,0.39100908480584623,0.10106382351368666,-9.801685259342195,596.730332041665,-0.008404678143560888,0.000724524836987257,0.006054207086563111,596.730332041665,0.38395156860351565,0.10313552856445313,-9.796378326416017,596.7253670416649,-0.0004270351491868496,0.0008149993955157697,0.0007450594566762447,596.730332041665
2025-10-03 13:42:53.261049,0.39091647952795033,0.10112079732120037,-9.801687598228455,596.8792870416655,-0.00022888194769620898,0.0032122410088777542,0.009948452711105346,596.8792870416655,0.3909869384765625,0.10223739624023438,-9.794881439208984,596.8743220416654,0.000372888520359993,-0.0006131880218163133,0.00015400955453515053,596.8792870416655
2025-10-03 13:42:53.421089,0.39063976004719736,0.10088923844508828,-9.80169929265976,597.0381723333303,0.00603531327098608,0.0019469126779586077,0.006818438172340393,597.0381723333303,0.3972738647460938,0.10223739624023438,-9.791887664794922,597.0332073333302,0.0012041316367685795,4.999677184969187e-05,-0.00017858529463410378,597.0381723333303
2025-10-03 13:42:53.630188,0.39069450460374355,0.10063835634849966,-9.801698707938195,597.2467093333325,-0.0004560462757945061,0.0015990398917347193,0.00622026801109314,597.2467093333325,0.3841012573242188,0.10283615112304688,-9.788744201660156,597.2516743333326,0.00259017338976264,-0.0017452770844101906,-4.910118877887726e-05,597.2467093333325
2025-10-03 13:42:53.764059,0.39013174664229155,0.10066040217876435,-9.8017238509655,597.385734333333,0.004298068955540657,0.0035229565668851138,0.00594310998916626,597.385734333333,0.39053787231445314,0.10837463378906251,-9.7956298828125,597.390699333333,0.001529625616967678,-0.002127638552337885,0.0007584956474602222,597.385734333333
2025-10-03 13:42:53.914914,0.38951789863407615,0.10020026285201311,-9.801753087043762,597.5346893333335,0.0005709440633654595,0.0050309169385582215,0.002679194211959839,597.5346893333335,0.3854484558105469,0.10268646240234376,-9.800270233154297,597.5297243333334,-0.0012504742480814457,0.0019703744910657406,0.00012404657900333405,597.5346893333335
2025-10-03 13:42:54.034053,0.3891392548754811,0.10052465541288257,-9.801764196753503,597.6538533333332,-0.0032416963577270507,0.006951846051961184,0.01137283444404602,597.6538533333332,0.38589752197265625,0.10103988647460938,-9.794582061767578,597.6588183333333,0.0004080096259713173,-0.001609344151802361,-0.0005020881071686745,597.6538533333332
2025-10-03 13:42:54.155716,0.3881192446500063,0.10068027357570827,-9.801803373098373,597.773017333333,0.010950921289622785,0.003353387312963605,0.015303332805633545,597.773017333333,0.4005670166015625,0.09789642333984376,-9.792187042236328,597.7779823333331,-0.002132306806743145,-0.0012784518767148256,-0.0005639945156872272,597.773017333333
2025-10-03 13:42:54.282385,0.38772813901305203,0.10095615251921118,-9.801814482808114,597.9021113333329,0.005055064111948014,8.372481912374497e-05,0.0010957682132720949,597.9021113333329,0.3945794677734375,0.1011895751953125,-9.79368392944336,597.8971463333328,-0.0019419523887336254,-0.00045037351083010435,0.0007129875011742115,597.9021113333329
2025-10-03 13:42:54.412863,0.3873555982857943,0.10110152891837061,-9.801826761960983,598.0312066666665,0.000487840510904789,0.0015849334839731456,0.004850850105285645,598.0312066666665,0.3872447204589844,0.10223739624023438,-9.798623657226562,598.0262406666661,0.0011538919061422348,0.0030010773334652185,0.0013628825545310974,598.0312066666665
2025-10-03 13:42:54.543380,0.3871341349929571,0.10135562698356808,-9.801834363341332,598.1603006666664,0.00400249220430851,0.010162469940260052,0.005306932926177978,598.1603006666664,0.39173538208007813,0.1095721435546875,-9.79128890991211,598.1652656666665,-0.0012248451821506023,0.0005486113950610161,0.00036925356835126877,598.1603006666664
2025-10-03 13:42:54.666264,0.3871539789810777,0.10140978681854904,-9.801833778619766,598.2893946666663,0.003383929878473282,-0.001268032668158412,0.0005145549774169923,598.2893946666663,0.39233413696289066,0.10103988647460938,-9.795929260253907,598.2844296666663,-7.270276546478271e-05,0.0003103232884313911,-0.003106227610260248,598.2893946666663
2025-10-03 13:42:54.796563,0.3874513464421034,0.10184007793664933,-9.801815652251245,598.4184896666666,0.0015896021202206612,0.002642639977857471,0.009180713295936584,598.4184896666666,0.3896397399902344,0.10313552856445313,-9.7956298828125,598.4135236666662,-0.0003598760813474655,-0.0006085589411668479,0.0018753611948341131,598.4184896666666
2025-10-03 13:42:55.002111,0.3877450593933463,0.10149267110042275,-9.801808635592462,598.5972356666643,-0.0024463288486003877,0.001044084308668971,0.004981243014335632,598.5972356666643,0.3860472106933594,0.1071771240234375,-9.800120544433595,598.6022006666644,0.0010517877526581287,-0.0005755826714448631,0.0018263221718370914,598.5972356666643
2025-10-03 13:42:55.136604,0.3878678143769503,0.1019369224458933,-9.801800449490548,598.7561206666651,0.0035682268068194392,0.004641455831006169,0.004224028587341309,598.7561206666651,0.39428009033203126,0.101788330078125,-9.794282684326172,598.7610856666652,-0.0012088608928024769,-0.00032575527438893914,-0.000795688945800066,598.7561206666651
2025-10-03 13:42:55.286098,0.3877611392363906,0.10242581362836063,-9.801799280047417,598.9050756666657,-0.004558014236390591,0.002056913422420621,0.01365324854850769,598.9050756666657,0.38470001220703126,0.09819580078125001,-9.789342956542969,598.9100406666657,-0.00040832394734025,0.0011432957835495472,-0.0006396682001650333,598.9050756666657
2025-10-03 13:42:55.436380,0.3876892550289631,0.10244846245273949,-9.801799280047417,599.0540303333328,-0.005084921456873417,-0.0011092076729983093,-0.0005648410320281983,599.0540303333328,0.39173538208007813,0.09086105346679688,-9.799222412109376,599.0589953333329,-0.0005359458737075329,-0.000686204875819385,-0.0008420045487582684,599.0540303333328
2025-10-03 13:42:55.605647,0.38773504603654146,0.1031517819967121,-9.801791093945504,599.2129163333302,0.0028028262779116633,0.005821597538888455,0.006012107133865356,599.2129163333302,0.39158569335937504,0.10523117065429688,-9.790091400146485,599.2079513333301,-0.00247471546754241,0.0007961599039845169,-0.0014064009301364422,599.2129163333302
2025-10-03 13:42:55.774270,0.38828241851180795,0.10359444363042712,-9.801768289804459,599.4015923333318,0.0033033844828605653,0.005678349891677499,0.010926107168197632,599.4015923333318,0.38859191894531253,0.1071771240234375,-9.79368392944336,599.3966273333317,0.0004992629401385784,0.0017640055157244205,-0.00012395018711686134,599.4015923333318
2025-10-03 13:42:55.931698,0.38832159485667944,0.10430349161848426,-9.801760103702545,599.5505473333324,0.0007194998860359192,-0.009101428706198931,0.01570679068565369,599.5505473333324,0.3897894287109375,0.09624984741210937,-9.787546691894532,599.5455823333323,-0.0009840670973062515,2.8169015422463417e-05,0.0006713476032018661,599.5505473333324
2025-10-03 13:42:56.123451,0.3881916404888034,0.10415870907716454,-9.801763612031937,599.7094333333334,0.009680979140102864,0.0013718390185385944,0.0026908886432647707,599.7094333333334,0.3956272888183594,0.10642868041992189,-9.801617431640626,599.7143983333335,-0.00026783160865306854,-0.0007341214222833514,0.000661494443193078,599.7094333333334
2025-10-03 13:42:56.299336,0.3887081323564053,0.1038890610728413,-9.801746655106545,599.8981093333314,0.0003328162059187889,-0.007639213660731912,0.005517432689666748,599.8981093333314,0.3909869384765625,0.09819580078125001,-9.789342956542969,599.9030743333315,-0.0002469690516591072,0.0012836898677051067,-0.0003622341901063919,599.8981093333314
2025-10-03 13:42:56.499290,0.3895947164297104,0.10385677347891033,-9.801709817647934,600.0967160416658,0.005583433136343957,0.004068775875493884,0.010720869898796082,600.0967160416658,0.39248382568359375,0.10538085937500001,-9.796528015136719,600.0917510416657,-0.0013488421682268381,-0.0014811765868216753,-0.0010631750337779522,600.0967160416658
2025-10-03 13:42:56.661235,0.3891201052442193,0.103484680429101,-9.801730282902717,600.2556020416632,0.005608941614627838,0.005788049139082432,0.015683401823043824,600.2556020416632,0.3918850708007813,0.10582992553710938,-9.787397003173828,600.2506360416664,-0.0005221008323132992,0.00048103375593200326,-0.0006913100369274616,600.2556020416632
2025-10-03 13:42:56.843013,0.38903791531920434,0.10336282993666829,-9.801736714839937,600.4442780416648,0.006589336954057217,0.0036645962297916414,-0.0006279909610748291,600.4442780416648,0.39113662719726566,0.104183349609375,-9.798324279785156,600.4393130416647,-0.0003739907406270504,0.0023269401863217354,0.0002486049197614193,600.4442780416648
2025-10-03 13:42:57.044479,0.38934050872921944,0.10305240673944355,-9.801729698181154,600.6428850416632,0.0008979861438274384,0.0005321971233934165,0.004902305603027344,600.6428850416632,0.389190673828125,0.10568023681640626,-9.791887664794922,600.6379200416668,0.00018987851217389107,0.0017144205048680305,0.001863347366452217,600.6428850416632
2025-10-03 13:42:57.235525,0.38951406139880423,0.10258896008133889,-9.801725605130196,600.8414920416653,-0.008107310682535172,0.0006962206587195396,0.012534091472625733,600.8414920416653,0.39053787231445314,0.10463241577148438,-9.78844482421875,600.8464570416654,-0.00040111318230628967,0.0010103279491886497,0.000515808816999197,600.8414920416653
2025-10-03 13:42:57.410792,0.3890500117465854,0.10198460466228426,-9.801753087043762,601.0301694166665,0.002086651995778084,-0.005585059393197298,0.0011823070049285888,601.0301694166665,0.3960763549804688,0.10014175415039063,-9.800270233154297,601.025203416666,-0.0011105933226644993,-2.143374877050519e-05,-0.0012200498022139072,601.0301694166665
2025-10-03 13:42:57.571480,0.38947020728141074,0.10168776710517705,-9.801736130118371,601.1890544166636,0.0012172806635499002,0.0015974410437047482,-0.005267756581306458,601.1890544166636,0.3896397399902344,0.10463241577148438,-9.809700622558594,601.1840894166635,0.00017339922487735748,-0.00203458359465003,0.0003099939785897732,601.1890544166636
2025-10-03 13:42:57.738000,0.3893322495371104,0.10210323004983365,-9.801739638447762,601.3380104166645,-0.0014887741953134538,0.0019304308388382197,-0.0004759633541107178,601.3380104166645,0.3890409851074219,0.10837463378906251,-9.805808715820312,601.3429754166646,0.001171883661299944,-0.0016800500452518463,0.0004590083844959736,601.3380104166645
2025-10-03 13:42:57.932384,0.3888028572499752,0.10174801169894636,-9.801762442588807,601.526686416666,-0.0027556831017136576,0.004081886429339648,0.006882757544517518,601.526686416666,0.38889129638671877,0.10328521728515626,-9.798623657226562,601.521721416666,0.0004482986405491829,-0.0008368990384042263,-0.0011682682670652866,601.526686416666
2025-10-03 13:42:58.086543,0.3891645440831781,0.10185890779830516,-9.80174840927124,601.6955024166637,-0.006410521790385247,-0.003812814010307193,0.002376893162727356,601.6955024166637,0.3875440979003906,0.09535171508789063,-9.79128890991211,601.7004674166637,0.000976582057774067,-0.0013339696452021599,-0.0007086214609444141,601.6955024166637
2025-10-03 13:42:58.252788,0.38942335646599535,0.10128422699868679,-9.80174607038498,601.8643184166649,0.0014139298349618913,0.0024500655848532916,0.00297155499458313,601.8643184166649,0.39053787231445314,0.10822494506835938,-9.793085174560547,601.8692844166653,0.001163664273917675,-0.0009245749097317457,0.0008833070751279593,601.8643184166649
2025-10-03 13:42:58.411398,0.389222321882844,0.10043563155457377,-9.801763027310372,602.03313420833,0.0011659713461995124,0.008388095805421472,0.0068798339366912846,602.03313420833,0.38589752197265625,0.104183349609375,-9.800270233154297,602.0281692083299,0.002474565990269184,7.718743290752172e-05,0.001941401744261384,602.03313420833
2025-10-03 13:42:58.554452,0.3891436402872205,0.10019380350597203,-9.801764781475068,602.1622292083302,0.004387860260903835,0.004288886999711395,-0.0010484057664871217,602.1622292083302,0.39158569335937504,0.104183349609375,-9.792935485839845,602.1671942083303,-0.00047570886090397835,-0.0006174070294946432,-0.0014623133465647697,602.1622292083302
2025-10-03 13:42:58.751915,0.3888829275593162,0.10010670740157367,-9.801778230071069,602.3509062083322,-0.0034344352036714556,0.000484122047200799,0.009141536951065064,602.3509062083322,0.3908372497558594,0.0999920654296875,-9.797126770019531,602.3558712083322,-0.0015213629230856895,0.003164370311424136,-0.0009477152489125729,602.3509062083322
2025-10-03 13:42:58.919374,0.38905180245637894,0.10079962986521424,-9.801762442588807,602.5197222083334,0.0005878644436597824,0.006676862463355065,0.004338049292564392,602.5197222083334,0.38619689941406254,0.10313552856445313,-9.797126770019531,602.5246872083335,0.0012875399552285671,0.0011019507655873895,0.000656230840831995,602.5197222083334
2025-10-03 13:42:59.099818,0.3889431538805366,0.10027728164568545,-9.80177413702011,602.7083992083317,-0.0036443867906928063,-0.0031293019093573096,0.00898833990097046,602.7083992083317,0.38589752197265625,0.09475296020507813,-9.793085174560547,602.7034342083316,-0.0017483769915997982,-0.0013723049778491259,0.0002689477987587452,602.7083992083317
2025-10-03 13:42:59.284751,0.3888532163947821,0.10043028683401645,-9.801776475906372,602.8871462083334,-0.0032550718635320666,0.002256175568327308,0.007643480300903321,602.8871462083334,0.3878434753417969,0.1023870849609375,-9.796528015136719,602.882180208333,0.000952861737459898,-0.0018723602406680584,-0.002087682019919157,602.8871462083334
2025-10-03 13:42:59.440991,0.3894514961913228,0.09999849736690522,-9.80175718009472,603.046032833332,0.004379527978599072,0.0064301739167422056,-0.0027049219608306888,603.046032833332,0.39173538208007813,0.104183349609375,-9.81044906616211,603.0410668333316,0.00016368180513381958,0.0003838989941868931,-0.0011125924065709114,603.046032833332
2025-10-03 13:42:59.607181,0.39010028131306174,0.10026606230065227,-9.801728528738023,603.2148488333332,-0.002107117250561714,0.006162627255544066,0.0020570504665374757,603.2148488333332,0.3890409851074219,0.10343490600585938,-9.803563385009767,603.2098838333332,-0.0007000463083386421,0.001644153380766511,0.0006015338003635406,603.2148488333332
2025-10-03 13:42:59.773491,0.391156946271658,0.1007162430882454,-9.801679412126541,603.3737348333307,-0.004960083402693272,0.0009223799966275693,0.0014109331369400026,603.3737348333307,0.38470001220703126,0.10627899169921876,-9.801018676757813,603.3687688333303,-0.0009334743954241276,-0.0008504348807036877,-0.0010988153517246246,603.3737348333307
2025-10-03 13:42:59.938720,0.39135151237249377,0.10141237238422036,-9.801667132973671,603.5425508333319,-0.007549632489681244,-0.0008215429354459047,-0.0017471480369567873,603.5425508333319,0.3802093505859375,0.10343490600585938,-9.803862762451173,603.5375858333318,-0.00017619645223021507,0.00021015902166254818,-0.0016041416674852371,603.5425508333319
2025-10-03 13:43:00.101121,0.3915641682967544,0.10163586392998696,-9.801656607985498,603.701436833333,-0.004169722571969033,0.0029965609777718783,-0.0014582955837249758,603.701436833333,0.38859191894531253,0.10388397216796875,-9.805060272216798,603.6964718333329,0.0013396535068750381,0.0013210346223786473,-0.0009979605674743652,603.701436833333
2025-10-03 13:43:00.264722,0.39205116827040914,0.10119398801587523,-9.801641405224801,603.8702528333306,-0.0034591762349009516,-0.0028484893776476385,0.006759381294250489,603.8702528333306,0.3909869384765625,0.09774673461914063,-9.796827392578125,603.8652878333305,0.00016008038073778152,0.000787244935054332,-0.0010830792598426342,603.8702528333306
2025-10-03 13:43:00.423803,0.39171334538608793,0.10087580812163652,-9.801658946871758,604.0291384583325,-0.0034207673370838165,0.0033075506240129475,0.0067757534980773925,604.0291384583325,0.39233413696289066,0.1011895751953125,-9.786199493408203,604.0241734583324,0.0011268360540270805,-0.0003210800641681999,-0.0009177261963486671,604.0291384583325
2025-10-03 13:43:00.590359,0.39119743824005127,0.10131128864362836,-9.80167590379715,604.1979554583304,-0.0005097675696015358,-0.00446266807615757,0.003498973846435547,604.1979554583304,0.3944297790527344,0.0916094970703125,-9.79847396850586,604.19298945833,-0.0022070370614528656,-0.0002491670020390302,0.0005116662941873074,604.1979554583304
2025-10-03 13:43:00.749580,0.3915505735203624,0.10120644075796009,-9.801661870479585,604.346910458331,-0.0014616942778229714,0.004473796058446169,0.003336421251296997,604.346910458331,0.39772293090820315,0.10223739624023438,-9.795330505371094,604.351875458331,0.0009695142507553101,0.0008101195562630892,0.0008018489461392164,604.346910458331
2025-10-03 13:43:00.933439,0.3904330609738827,0.10125382147729398,-9.801702800989151,604.5355874583329,0.002799135223031044,0.009066747408360243,0.0032305866479873657,604.5355874583329,0.3921844482421875,0.1071771240234375,-9.801617431640626,604.5306224583328,0.0008257832378149033,0.0008031151373870671,0.0010479353368282318,604.5355874583329
2025-10-03 13:43:01.093968,0.39022873733192687,0.10110387694090606,-9.801716249585152,604.6944734583303,-0.005977681651711465,0.009965181229636074,0.007282122373580933,604.6944734583303,0.3791615295410156,0.106578369140625,-9.794432373046876,604.6994394583307,0.0015093246474862099,-0.0009299269877374172,-0.0011014868505299091,604.6944734583303
2025-10-03 13:43:01.258845,0.38981208667159084,0.1013823779951781,-9.801727944016458,604.8831514583326,0.00042640820145606995,-0.0022884540259838107,0.00969117522239685,604.8831514583326,0.39353164672851565,0.10208770751953125,-9.799072723388672,604.8781864583325,0.0019116820767521858,-0.0021377182565629482,0.000757912639528513,604.8831514583326
2025-10-03 13:43:01.444780,0.3894781375676394,0.10119150294922293,-9.801744316220285,605.0420372083317,0.0036044429987668993,0.0020937143359333276,-0.0034662294387817383,605.0420372083317,0.38664596557617187,0.10298583984375001,-9.81853225708008,605.0470022083318,-0.0021362050902098417,3.844220191240311e-05,-0.00047524692490696907,605.0420372083317
2025-10-03 13:43:01.593329,0.38928053822368386,0.10129808672703804,-9.801750748157502,605.210853208333,-0.001287410706281662,0.004681518394500018,-0.0006157118082046509,605.210853208333,0.3849993896484375,0.10403366088867189,-9.806706848144533,605.2058882083329,-0.0019202677067369223,-0.0002005605783779174,-0.0006567570380866528,605.210853208333
2025-10-03 13:43:01.733202,0.38919648449867966,0.10102740632370115,-9.801755425930024,605.3498792083301,-0.009585925340652467,0.005251585375517607,0.009568968415260315,605.3498792083301,0.3894900512695313,0.10403366088867189,-9.795779571533204,605.3548442083302,0.00025576865300536156,0.00041763560147956014,0.0026672864332795143,605.3498792083301
2025-10-03 13:43:01.886001,0.3890279750525952,0.10119818156585098,-9.801761857867241,605.498835208331,0.0016595859825611116,0.0019373469986021519,-0.0006046020984649659,605.498835208331,0.39472915649414064,0.10463241577148438,-9.799521789550782,605.5038002083311,0.001446310430765152,-0.0008347420371137559,-0.0020763170905411243,605.498835208331
2025-10-03 13:43:02.010162,0.3889534961432219,0.10180081936530769,-9.80175951898098,605.6279302083312,-0.0009602955356240273,-0.004952207934111357,0.0001403331756591797,605.6279302083312,0.38170623779296875,0.10223739624023438,-9.80236587524414,605.6328952083313,-0.0013888310641050339,0.0011061413679271936,0.0004097316414117813,605.6279302083312
2025-10-03 13:43:02.150192,0.3893595487251878,0.10222390196286142,-9.801740807890893,605.7669552083316,0.0004299896210432053,-0.003579007610678673,-0.004669586420059204,605.7669552083316,0.3960763549804688,0.096998291015625,-9.797276458740235,605.7719202083317,0.0013961857184767723,0.0014187133638188243,-0.00024691177532076836,605.7669552083316
2025-10-03 13:43:02.278038,0.3898201631382108,0.10159776566550136,-9.801726189851761,605.8960502083319,0.00880093663930893,-0.003851012773811817,0.0034007406234741215,605.8960502083319,0.3998185729980469,0.10343490600585938,-9.796528015136719,605.901015208332,-0.0007664700970053673,-0.00013251608470454812,0.004059433937072754,605.8960502083319
2025-10-03 13:43:02.412581,0.38998545661568645,0.10227913987822831,-9.801709817647934,606.0350764166651,0.005342381671071053,-0.0010895920917391778,0.0014413386583328248,606.0350764166651,0.3932322692871094,0.10463241577148438,-9.80281494140625,606.0301104166647,0.000892117153853178,0.0005552240763790905,-0.0009250128641724586,606.0350764166651
2025-10-03 13:43:02.552530,0.3898535653576255,0.10190359331667424,-9.80172151207924,606.1641714166653,0.005025279857218266,0.0004835007805377245,-0.0001952970027923584,606.1641714166653,0.39652542114257816,0.09505233764648438,-9.796827392578125,606.1691364166654,-0.0006458922289311886,-0.0007959806825965643,0.000999288633465767,606.1641714166653
2025-10-03 13:43:02.679364,0.39008588254451754,0.10213082159869373,-9.801709817647934,606.3031964166657,-0.0005958312749862672,0.0007053295243531466,0.011319040060043336,606.3031964166657,0.3896397399902344,0.10403366088867189,-9.798324279785156,606.2982314166657,0.0016405824571847916,-0.0009489590302109718,0.0017478920053690672,606.3031964166657
2025-10-03 13:43:02.817669,0.390129955932498,0.10224431239999832,-9.801706894040109,606.4422224166665,0.001455737426877022,0.005830934811383486,0.0030826520919799805,606.4422224166665,0.3918850708007813,0.11166778564453125,-9.800270233154297,606.4372574166664,0.0002809753641486168,0.0008158934069797397,-0.0005244901403784752,606.4422224166665
2025-10-03 13:43:02.937726,0.3904359845817089,0.10264262655749917,-9.801688767671585,606.5613874166665,-4.7910623252391815e-05,0.003935706038028002,0.008904139995574952,606.5613874166665,0.3929328918457031,0.1047821044921875,-9.80131805419922,606.5564214166661,-0.0014795009046792984,-0.0011044120183214545,0.0004203882999718189,606.5613874166665
2025-10-03 13:43:03.081632,0.39029013309627775,0.10278130606748165,-9.801694030165672,606.7004124166633,-0.004093270227313042,0.007239894513040781,-0.00022219419479370118,606.7004124166633,0.39308258056640627,0.10942245483398438,-9.796528015136719,606.7053774166634,-0.00047087250277400017,-0.0007146881544031203,-0.0004895217716693878,606.7004124166633
2025-10-03 13:43:03.232620,0.38957816150039437,0.1025599706824869,-9.801724435687065,606.8592984166644,0.004552240110933781,0.00536560608074069,0.008490157127380372,606.8592984166644,0.3960763549804688,0.10523117065429688,-9.795929260253907,606.8543334166643,0.001128626987338066,-0.0012425822205841541,-0.0011272858828306198,606.8592984166644
2025-10-03 13:43:03.382972,0.38954307820647954,0.10224328000098468,-9.801727359294892,606.9983249583311,0.000994684472680092,-0.0024009398370981217,0.01163829803466797,606.9983249583311,0.3897894287109375,0.10388397216796875,-9.800120544433595,607.0032899583312,0.0016017495654523373,-0.0004540628578979522,1.3248063623905182e-05,606.9983249583311
2025-10-03 13:43:03.568409,0.38921570722013715,0.10282916187308729,-9.80173496067524,607.1671419583326,0.008806564584374428,0.002851065807044506,0.00026897192001342776,607.1671419583326,0.3983216857910156,0.1023870849609375,-9.801767120361328,607.1621769583326,-0.002364332554861903,0.0009803412249311805,-0.002176806330680847,607.1671419583326
2025-10-03 13:43:03.767834,0.388933286704123,0.10315393815748394,-9.801744316220285,607.3558189583309,0.00235302921384573,0.0016281571984291076,0.00446844220161438,607.3558189583309,0.3950285339355469,0.10313552856445313,-9.79847396850586,607.3607849583314,-0.00014709262177348137,0.00030784966656938195,-0.0009369379840791225,607.3558189583309
2025-10-03 13:43:03.944244,0.38866873674094676,0.10278523466549815,-9.801760103702545,607.5444969583332,-0.0005258474126458168,0.0021465768199414015,0.0008899462223052979,607.5444969583332,0.3878434753417969,0.10523117065429688,-9.802515563964844,607.5395319583331,0.0006607207469642162,0.0005613453686237335,0.0003247354179620743,607.5444969583332
2025-10-03 13:43:04.114433,0.38858958005905153,0.10263495208695532,-9.801762442588807,607.7133139583311,0.01796494882553816,-0.003091961955651641,0.006133729219436646,607.7133139583311,0.37661682128906254,0.10388397216796875,-9.800569610595703,607.7182789583312,-0.0003659822978079319,0.0026412280276417732,-0.00047468626871705055,607.7133139583311
2025-10-03 13:43:04.286043,0.38877358462661504,0.10337399446405471,-9.80174840927124,607.8920609583329,-0.0043729133158922195,0.0042522048577666284,0.00866323471069336,607.8920609583329,0.3836521911621094,0.11226654052734375,-9.801916809082032,607.8870959583328,-0.0005617905408143997,6.002839654684067e-06,0.00034357747063040733,607.8920609583329
2025-10-03 13:43:04.474428,0.3884895195811987,0.10373030003160238,-9.801755425930024,608.0807386666638,0.0007011177018284798,0.0006027382984757424,-0.0006098645925521851,608.0807386666638,0.3902384948730469,0.10493179321289063,-9.79997085571289,608.0757736666637,1.673121005296707e-05,0.001635444350540638,-0.0005032531917095184,608.0807386666638
2025-10-03 13:43:04.649307,0.38857145369052887,0.10349600027315319,-9.801755425930024,608.2396246666649,0.0022657960653305054,0.0036811146140098574,0.004778344631195069,608.2396246666649,0.39053787231445314,0.10283615112304688,-9.799372100830078,608.2445906666653,-0.00021154340356588364,-0.0006820976850576699,0.00022489763796329498,608.2396246666649
2025-10-03 13:43:04.824901,0.38832967132329943,0.10373460321687163,-9.801763027310372,608.4283026666635,0.000711350329220295,-0.007185369227081537,0.0023903417587280273,608.4283026666635,0.38589752197265625,0.09909393310546875,-9.79802490234375,608.4233376666634,0.0009253956377506256,-0.0012937294086441398,0.00013913773000240326,608.4283026666635
2025-10-03 13:43:05.004665,0.3822121315822005,0.10633972051553428,-9.801977035403253,608.5971196666651,0.005032661966979504,-0.11352474256418646,0.060981781482696534,608.5971196666651,0.42541534423828126,-0.008831634521484376,-9.82287322998047,608.6020846666652,0.0022024447098374367,0.00797034427523613,-0.0036406032741069794,608.5971196666651
2025-10-03 13:43:05.194185,0.3870281542092562,0.10503350735642017,-9.801798110604286,608.7758666666668,-0.1928819200024009,-0.0333326284121722,0.011708464622497559,608.7758666666668,0.27033782958984376,0.16510665893554688,-9.780511322021486,608.7808316666633,0.003176972270011902,0.007126840762794018,0.0005483492277562618,608.7758666666668
2025-10-03 13:43:05.375262,0.38614262994378806,0.10535690406337381,-9.80182968556881,608.9744741666655,-0.0014427273720502853,-0.03141069430857897,0.007997821569442749,608.9744741666655,0.4004173278808594,0.07050338745117188,-9.80236587524414,608.9695091666654,0.0006528799422085285,-0.006119152996689081,-0.00020181946456432343,608.9744741666655
2025-10-03 13:43:05.522346,0.3876352048292756,0.10539825484156609,-9.801774721741676,609.1432911666634,0.036433050557971004,0.08485613658092916,0.010482888221740724,609.1432911666634,0.4046086120605469,0.19025436401367188,-9.805808715820312,609.1482571666638,0.0007525421679019928,-0.0006462788442149758,0.0017211835365742445,609.1432911666634
2025-10-03 13:43:05.703219,0.3869564527273178,0.10410991223528981,-9.801810389757156,609.2922481666646,0.40354971785098315,0.016988290222361684,0.08461973547935486,609.2922481666646,1.1648776245117187,0.0796343994140625,-9.925260314941406,609.2972131666647,-0.00657783355563879,-0.023248033598065376,0.008192024193704128,609.2922481666646
2025-10-03 13:43:05.820796,0.3837771753966808,0.10505609222687781,-9.80192791879177,609.4412041666656,-0.01868634905666113,-0.37928581941872835,-0.018401187658309937,609.4412041666656,0.34637969970703125,-0.28156448364257813,-9.812095642089844,609.4461691666656,-0.0016998243518173695,0.001417065504938364,-0.000927116721868515,609.4412041666656
2025-10-03 13:43:05.942057,0.389517496638,0.1017617435194552,-9.80173379123211,609.5603691666656,0.09712042473256588,-0.02152860749512911,-0.023832081556320193,609.5603691666656,0.5037025451660156,0.06496490478515625,-9.807904357910157,609.5653341666657,0.004885131027549505,0.007535141427069902,-0.0015759114176034927,609.5603691666656
2025-10-03 13:43:06.082492,0.37844531871378423,0.09978049672208728,-9.802190458774566,609.699394166666,-0.09493488170206547,-0.003979715472087264,0.0493715500831604,609.699394166666,0.29174331665039066,0.08966354370117188,-9.761201477050781,609.6944291666659,0.000247021671384573,-0.008971132338047028,-0.0017621652223169804,609.699394166666
2025-10-03 13:43:06.205340,0.3786312236264348,0.09612252429127693,-9.80222086429596,609.8284901666666,-0.011295066475868226,0.23798270031809807,-0.019006959199905398,609.8284901666666,0.38455032348632817,0.3189866638183594,-9.801767120361328,609.8235241666662,0.003953023813664913,0.0004938560305163264,-0.007228274829685688,609.8284901666666
2025-10-03 13:43:06.331664,0.3785068972036243,0.0951641199644655,-9.80223548233509,609.9476552083324,0.03987315025180579,0.13341056568548085,-0.010011602640151978,609.9476552083324,0.36119888305664066,0.19908599853515627,-9.801767120361328,609.9526202083325,0.0007481249049305916,-0.00511369202286005,-0.0006080907769501209,609.9476552083324
2025-10-03 13:43:06.468814,0.3774441292136908,0.09449442191049458,-9.802282260060311,610.0767502083327,-0.047380500063300135,-0.03252329153940082,0.003957395553588867,610.0767502083327,0.36628829956054687,0.0664617919921875,-9.81134719848633,610.0817152083328,0.0023879632353782654,0.003410588251426816,-0.0014465595595538616,610.0767502083327
2025-10-03 13:43:06.595207,0.3736680338904262,0.09478725777938962,-9.80242142379284,610.2157762083334,0.02016295373439789,0.014036433035507799,0.0006554728746414185,610.2157762083334,0.4728666687011719,0.13262420654296875,-9.830507354736328,610.2108112083333,-0.000807776115834713,-0.010738748125731945,-0.00571103673428297,610.2157762083334
2025-10-03 13:43:06.722715,0.04500950893387198,0.12593083483166995,-9.80908724963665,610.34487120833,2.400155725479126,0.5955687715485692,-6.028277608752251,610.34487120833,2.4897724914550783,0.6285429382324219,-14.582974548339845,610.3399062083299,-0.14640668034553528,-1.9114484786987305,-0.09164251387119293,610.34487120833
2025-10-03 13:43:06.868789,-9.686741863489152,0.9074139019846916,-1.2568841475248338,610.4838972083307,5.280652615427972,-1.5606551867723466,-5.053392977714539,610.4838972083307,-4.867727508544922,-0.6593788146972657,-7.777676239013672,610.4789322083307,-1.7629669904708862,-12.114461898803711,-0.2193087786436081,610.4838972083307
2025-10-03 13:43:07.016878,0.3979242943972349,-0.09375490444712341,9.801477683186532,610.6427842083322,0.6304372168332338,0.14405031460337342,-11.3646764087677,610.6427842083322,0.8569679260253906,-0.033679962158203125,-1.096769256591797,610.6378182083317,-0.868669331073761,-10.641024589538574,-0.15878482162952423,610.6427842083322
2025-10-03 13:43:07.147970,8.692217604517937,-0.6805290707945824,4.496481939554215,610.7718792083324,3.230638688206673,-0.2241896302253008,-7.743978735208512,610.7718792083324,12.50050506591797,-0.9437873840332032,-2.750829620361328,610.7669142083323,-0.2867128849029541,-5.229722023010254,-0.04963323473930359,610.7718792083324
2025-10-03 13:43:07.324496,6.338960641622544,-0.5625241824612022,-7.4657395631074905,610.9208352083333,-0.7256336152553559,-0.3814127441123128,-3.345528874397278,610.9208352083333,6.209686889648438,-0.5099894714355468,-12.247082061767578,610.9158702083332,-1.4476103782653809,-11.022250175476074,0.3924104571342468,610.9208352083333
2025-10-03 13:43:07.503801,0.5037812998518348,0.09924150221049786,-9.79655608177185,611.099583166666,-7.957081679105759,-0.60459058675915,9.455263459682465,611.099583166666,-6.238726501464844,0.564027099609375,-24.254362792968752,611.0946171666656,-0.2824869751930237,-0.4550112187862396,0.12155448645353317,611.099583166666
2025-10-03 13:43:07.680619,0.44840392839163545,0.12230889586731793,-9.798986769318581,611.2981911666648,-0.09019871011376382,0.38438747853040695,-0.44376624584198,611.2981911666648,0.21809646606445313,0.5179229736328125,-10.357261962890625,611.2932261666647,0.003229789435863495,0.006905075628310442,-0.007965108379721642,611.2981911666648
2025-10-03 13:43:07.813161,0.4516207740828395,0.12419400164857507,-9.798810183405877,611.4372171666655,-0.2791794043779373,-0.7692026808857918,-0.3129605233669281,611.4372171666655,0.23111938476562502,-0.5908213806152344,-9.917027435302735,611.4322511666651,0.002637394703924656,0.02773997187614441,0.01252889633178711,611.4372171666655
2025-10-03 13:43:07.927168,0.45022453207522634,0.12628571514040232,-9.798851113915443,611.5464511666651,0.021893802657723428,0.07938661451451481,0.16248827576637268,611.5464511666651,0.57240966796875,0.07798782348632813,-9.616153106689454,611.5514161666651,-0.0007089972496032715,0.011404107324779034,0.004734995309263468,611.5464511666651
2025-10-03 13:43:08.050966,0.4459385230019689,0.12544141374528409,-9.799058105349541,611.6755471666656,-0.22933890759944917,-0.051644856166094544,0.048333084583282476,611.6755471666656,0.3200344848632813,0.07439529418945313,-9.732161865234376,611.6705811666652,-0.002437789924442768,-0.00947834923863411,0.0008435491472482681,611.6755471666656
2025-10-03 13:43:08.182172,0.44481677122414115,0.12554490032605828,-9.799104298353196,611.8046421666659,0.1651646925508976,0.28924253560602664,-0.0727153891324997,611.8046421666659,0.5809419250488281,0.4302053833007813,-9.765542449951173,611.7996771666658,-0.00047509418800473213,-0.006230397615581751,-0.0019317730329930782,611.8046421666659
2025-10-03 13:43:08.318707,0.4458812568336725,0.1251815232820809,-9.799059859514237,611.9337371666661,-0.11027925465255976,0.17165117332711816,0.06675064444541931,611.9337371666661,0.41733215332031254,0.32587234497070316,-9.736802215576173,611.9387031666665,-0.0023696650750935078,0.003114523133262992,0.007493490818887949,611.9337371666661
2025-10-03 13:43:08.440863,0.4461616308242083,0.12754746205173434,-9.799018929004669,612.0628331666667,-0.039457376673817636,-0.17395097460597755,-0.012328269481658936,612.0628331666667,0.4071533203125,-0.038769378662109374,-9.86553451538086,612.0677981666668,-0.0007251356728374958,0.001801738515496254,0.0028319144621491432,612.0628331666667
2025-10-03 13:43:08.568679,0.44652664326131347,0.1276905178371817,-9.79899787902832,612.1919281666633,-0.029643592648208143,0.057324722679331905,-0.0651865142583847,612.1919281666633,0.41882904052734377,0.17857864379882812,-9.83679428100586,612.1869631666668,-0.0014158026315271854,0.0025382887106388807,0.0033114654943346977,612.1919281666633
2025-10-03 13:43:08.690770,0.4487466483190656,0.12966967242769897,-9.798872748613357,612.3110931666633,-0.18379761267453432,0.009091771664097905,-0.009780052900314331,612.3110931666633,0.2775228881835938,0.14160552978515625,-9.842781829833985,612.3160591666638,-0.006064217537641525,-0.002860547509044409,0.046617887914180756,612.3110931666633
2025-10-03 13:43:08.818736,0.43773042093962433,0.1333426192123443,-9.799324738383294,612.4401891666639,-0.0943444225564599,0.09463333896361292,-0.13551857829093933,612.4401891666639,0.25162673950195313,0.24414230346679688,-9.947863311767579,612.4352241666638,-0.02185225859284401,-0.021476419642567635,0.2704330086708069,612.4401891666639
2025-10-03 13:43:08.944336,0.43298456490039827,0.12916694892570377,-9.799587863087655,612.5692841666641,0.9010413140058517,-0.38199121646583084,0.030154675841331482,612.5692841666641,1.3765374755859376,-0.23201751708984375,-9.89666976928711,612.5643191666641,0.002275079023092985,-0.007912706583738327,-0.016955316066741943,612.5692841666641
2025-10-03 13:43:09.093777,0.4380799748003483,0.11849595394916833,-9.799498985409738,612.7182411666654,-0.142744055762887,-0.4042517126351595,-0.007059928178787232,612.7182411666654,0.3351530456542969,-0.28650421142578125,-9.779912567138672,612.713275166665,0.004489277955144644,0.011115305125713348,0.004691824782639742,612.7182411666654
2025-10-03 13:43:09.315016,0.4385014859586954,0.1124816541094333,-9.799547517299652,612.906919166664,0.02688063707202673,-0.03090132873505354,-0.03395185768604279,612.906919166664,0.44996429443359376,0.07514373779296875,-9.829908599853516,612.9019531666636,0.0015333672054111958,-0.017867863178253174,0.010371958836913109,612.906919166664
2025-10-03 13:43:09.533008,0.4211951528862119,0.1161200109589845,-9.800266140103341,613.1154617916654,0.022931244894862177,0.34192744698375466,-0.0006028479337692261,613.1154617916654,0.4481680297851563,0.46538223266601564,-9.804012451171875,613.1204277916659,0.0012705279514193535,-0.0017430088482797146,-0.002132302150130272,613.1154617916654
2025-10-03 13:43:09.691606,0.42365047182887794,0.11861182018183172,-9.800131654143334,613.3140707916646,-0.08161163538694383,-0.2970407478511334,0.012583208084106446,613.3140707916646,0.3668870544433594,-0.15881973266601562,-9.818831634521485,613.3091057916645,-0.00011801719665527344,-0.0025995951145887375,0.0004720245487987995,613.3140707916646
2025-10-03 13:43:09.821374,0.4230160123854876,0.11723585156723858,-9.800171999931337,613.4431657916648,-0.04026206318289042,0.06762968195602298,0.001999747753143311,613.4431657916648,0.39847137451171877,0.19055374145507814,-9.82392105102539,613.4382007916647,0.0007381686009466648,0.0001713186502456665,-0.00213509239256382,613.4431657916648
2025-10-03 13:43:09.942910,0.4246883160620928,0.11528405098244549,-9.800125806927682,613.5623307916649,0.03036539487540722,-0.011250390093773604,0.0606286096572876,613.5623307916649,0.439486083984375,0.12678634643554687,-9.780062255859375,613.5573657916648,-0.002172716660425067,0.0007890232373028994,-0.0035196426324546337,613.5623307916649
2025-10-03 13:43:10.073660,0.4304103282094002,0.10854458676651121,-9.799952144622804,613.6914267916654,-0.06187669783830643,-0.008552512200549246,-0.04761972427368164,613.6914267916654,0.29758117675781254,0.11705657958984375,-9.791887664794922,613.6963917916655,0.0056024109944701195,0.0045626116916537285,-0.015482276678085327,613.6914267916654
2025-10-03 13:43:10.209494,0.43124414116144183,0.10676317770034076,-9.799933433532715,613.8205217916657,-0.16824113197624685,-0.04045109270140529,-0.03416469633579254,613.8205217916657,0.2839595031738281,0.06870712280273437,-9.774972839355469,613.8155567916656,0.0072072758339345455,0.011106252670288086,-0.010057778097689152,613.8205217916657
2025-10-03 13:43:10.339031,0.4282874965667725,0.10936452171765268,-9.80003751397133,613.9496134166657,-0.04119242828339339,-0.26519047083333136,0.028656034469604495,613.9496134166657,0.4375401306152344,-0.16121475219726564,-9.743089141845704,613.9545784166658,-0.007954892702400684,-0.00347785628400743,0.010123725049197674,613.9496134166657
2025-10-03 13:43:10.469004,0.42368975780904294,0.11503595544956625,-9.80017024576664,614.0886394166664,-0.05635367374867201,-0.05126856956630946,-0.011475160717964172,614.0886394166664,0.3742218017578125,0.06586303710937501,-9.813293151855468,614.0836744166663,-0.0015015208628028631,-0.00390742439776659,-0.0022975243628025055,614.0886394166664
2025-10-03 13:43:10.587593,0.41807767331600193,0.11508192004635931,-9.800409396886826,614.2078044166665,-0.056429760642349724,0.009010011143982411,-0.004947913885116577,614.2078044166665,0.35296600341796874,0.10268646240234376,-9.804012451171875,614.2127694166666,-0.001197874080389738,-0.000441595766460523,-0.0005886703729629517,614.2078044166665
2025-10-03 13:43:10.711630,0.41818621225655084,0.11397932703606785,-9.800421091318132,614.3368994166667,-0.05189783960580826,0.07178437535651029,0.0017962646484375,614.3368994166667,0.3737727355957031,0.19848724365234377,-9.794881439208984,614.3319344166666,0.002189195714890957,0.0010656886734068394,-0.000627709086984396,614.3368994166667
2025-10-03 13:43:10.847593,0.4210419558361173,0.11432262254878879,-9.800292452573776,614.4659954166636,-0.024516571238636972,0.11065950639545918,0.004963116645812988,614.4659954166636,0.38993911743164067,0.24623794555664064,-9.793983306884765,614.4610304166636,-0.0022462487686425447,-0.0041933730244636536,0.0030125388875603676,614.4659954166636
2025-10-03 13:43:10.969169,0.4200470520928502,0.11515714813023806,-9.800326951146126,614.5851604166637,-0.07441575944423676,-0.20302440891042353,-0.02179841995239258,614.5851604166637,0.35206787109375004,-0.09909393310546875,-9.817933502197267,614.5901254166638,0.0019815866835415363,0.0018314379267394543,-0.00262020668014884,614.5851604166637
2025-10-03 13:43:11.115674,0.4197972298040986,0.1149494714755565,-9.800336891412735,614.7341164166646,-0.04362954776734114,-0.06854599546641112,-0.0068160992860794075,614.7341164166646,0.36359390258789065,0.05239105224609375,-9.798623657226562,614.739082416665,0.0024052513763308525,-0.00037041064933873713,0.00030964799225330353,614.7341164166646
2025-10-03 13:43:11.268716,0.42000641394406557,0.11419740077108145,-9.800341569185257,614.8830734166659,-0.04937710493803025,-0.23784028407186272,0.04078549861907959,614.8830734166659,0.4722679138183594,-0.09535171508789063,-9.77407470703125,614.888038416666,-0.003956591710448265,-0.005827995948493481,-0.0011977795511484146,614.8830734166659
2025-10-03 13:43:11.403516,0.4189208418130875,0.11353835561312736,-9.800394778847695,615.0220994166666,-0.06879888754338026,0.15185974619351328,-0.0004747939109802246,615.0220994166666,0.34937347412109376,0.199984130859375,-9.871522064208985,615.0270644166667,0.003730908501893282,0.0025668099988251925,-0.008584901690483093,615.0220994166666
2025-10-03 13:43:11.543729,0.4175709755346179,0.11395881609991193,-9.800448573231698,615.1710554166639,-0.04334906414151192,0.0887197391409427,0.007361644506454468,615.1710554166639,0.3673361206054688,0.18546432495117188,-9.799072723388672,615.1660904166638,-0.002053219825029373,0.002741882111877203,0.0016016231384128332,615.1710554166639
2025-10-03 13:43:11.842835,0.4160031908378005,0.11379793544299902,-9.800512892603875,615.468968416666,-0.06917446151375771,-0.07667515098117292,-5.496382713317872e-05,615.468968416666,0.3573069763183594,0.044756927490234376,-9.815987548828126,615.464003416666,0.0002745077945291996,-0.008040430955588818,0.00218368717469275,615.468968416666
2025-10-03 13:43:11.966172,0.41582079425454144,0.11357862831093371,-9.800524002313614,615.5881334166661,-0.057765410877764226,0.04808519004844129,0.00803875207901001,615.5881334166661,0.36060012817382814,0.16435821533203127,-9.794432373046876,615.583168416666,0.0009412369690835476,0.0016650182660669088,0.0010615605860948563,615.5881334166661
2025-10-03 13:43:12.088929,0.41574529208242894,0.11334647557698191,-9.800532188415527,615.7172294166667,-0.05080415446311236,-0.08370810887776316,-0.0010864126682281494,615.7172294166667,0.36119888305664066,0.037122802734375,-9.800120544433595,615.7122644166666,-0.0019125768449157476,0.0005295882583595812,-4.692142829298973e-05,615.7172294166667
2025-10-03 13:43:12.214956,0.41559041395783425,0.1124942895770073,-9.80054563701153,615.8363944166667,-0.05798413328826428,0.008454178478568792,0.012252255678176881,615.8363944166667,0.35640884399414063,0.10987152099609375,-9.792037353515626,615.8413594166668,-0.004004696384072304,-0.000978516647592187,0.003414804581552744,615.8363944166667
2025-10-03 13:43:12.357959,0.4165459951758385,0.11168291531503201,-9.80051464676857,615.9754202916665,-0.0709148121625185,-0.03698825282044709,0.0024914985895156862,615.9754202916665,0.355660400390625,0.08846603393554688,-9.804910583496094,615.9803852916666,0.002775750122964382,0.0022554132156074047,-0.0004823785275220871,615.9754202916665
2025-10-03 13:43:12.498918,0.41707505855709315,0.11179121671244503,-9.800491842627526,616.1144462916636,-0.052583023644983774,-0.003266894202679396,-0.0093578839302063,616.1144462916636,0.3668870544433594,0.1035845947265625,-9.806706848144533,616.1194112916637,-0.00047609442844986916,0.0017888997681438923,0.0015910775400698185,616.1144462916636
2025-10-03 13:43:12.627399,0.4166354575753212,0.11210815407335759,-9.800505291223526,616.2435422916642,-0.040916878245770935,-0.0315756497438997,0.009218720197677614,616.2435422916642,0.3541635131835938,0.05059478759765625,-9.772727508544923,616.2485072916643,-0.0006733560003340244,-0.003499569371342659,-0.000981808640062809,616.2435422916642
2025-10-03 13:43:12.765792,0.41715348433703187,0.11061350525356829,-9.800500613451005,616.3825682916649,0.004818946234881878,0.14969515264034272,0.021188555359840395,616.3825682916649,0.3972738647460938,0.28231292724609375,-9.796528015136719,616.3776022916645,-0.0014353280421346426,-0.0003405850729905069,-0.00029293401166796684,616.3825682916649
2025-10-03 13:43:12.880902,0.41799314450472597,0.11054532123729587,-9.800468453764916,616.501733291665,-0.1431646167486906,-0.1939219203963876,-0.07270077109336853,616.501733291665,0.28096572875976566,-0.025896148681640627,-9.728719024658204,616.5066982916651,0.00483530480414629,0.0054458435624837875,0.003759975079447031,616.501733291665
2025-10-03 13:43:13.002698,0.4179830215126276,0.10975295956246556,-9.800478394031526,616.6208982916651,-0.10663044590502978,0.019129028962925076,0.0043982756137847905,616.6208982916651,0.34637969970703125,0.02604583740234375,-9.808802490234376,616.6258632916652,-0.0003916332498192787,-0.002696626354008913,-0.001207111869007349,616.6208982916651
2025-10-03 13:43:13.125134,0.418694993108511,0.11010256824083627,-9.800442726016046,616.7499942916656,-0.04073093678802252,-0.04873019275255502,0.0030159938335418703,616.7499942916656,0.36718643188476563,0.06002517700195313,-9.793234863281251,616.7450282916652,0.0003476482816040516,0.001739233615808189,0.0011103057768195868,616.7499942916656
2025-10-03 13:43:13.250795,0.41820327881723646,0.10902871794998646,-9.800474300980568,616.8691592916657,-0.034251819849014285,0.09005726231262089,-0.018805230259895327,616.8691592916657,0.3842509460449219,0.20193008422851563,-9.804760894775391,616.8641942916656,0.0011351872235536575,0.0036780736409127712,-0.001550640445202589,616.8691592916657
2025-10-03 13:43:13.383094,0.42008056394755844,0.10762802657671273,-9.800409396886826,617.0081857916666,-0.026848367750644687,0.20267666403204204,0.013762006759643555,617.0081857916666,0.38934036254882814,0.31105316162109375,-9.793833618164063,617.0032207916665,-0.0030740362126380205,0.00031657289946451783,-0.00047853635624051094,617.0081857916666
2025-10-03 13:43:13.508295,0.4193780940771103,0.10933164026588202,-9.800423430204392,617.1273507916667,-0.05069470189511776,-0.06726910061202944,-0.0016442370414733887,617.1273507916667,0.370030517578125,0.03338058471679688,-9.802964630126954,617.1323157916668,0.0001392369158565998,-0.0020627211779356003,0.0023894740734249353,617.1273507916667
2025-10-03 13:43:13.649353,0.4184256557375193,0.10735052137635649,-9.800487749576568,617.2663767916638,-0.041808688268065455,-0.060048849089071155,-0.003677898645401001,617.2663767916638,0.36973114013671876,0.057330780029296875,-9.797575836181641,617.2713417916639,0.00029017915949225426,-0.00038632540963590145,0.0017970961052924395,617.2663767916638
2025-10-03 13:43:13.790490,0.4175706831738353,0.10454320005141199,-9.80055031478405,617.415333791665,-0.03451728343963623,0.05068398504517973,0.00013156235218048096,617.415333791665,0.38574783325195316,0.15492782592773438,-9.803413696289063,617.410368791665,0.002465970814228058,0.0012642089277505875,0.001812655245885253,617.415333791665
2025-10-03 13:43:13.915909,0.4167683355510235,0.10499972141347826,-9.800578966140748,617.5344987916651,-0.050180731639266014,-0.02177281097508967,-0.007473326325416565,617.5344987916651,0.36793487548828124,0.08532257080078126,-9.793534240722657,617.5394637916652,-0.00197634962387383,-0.0017589847557246685,0.0013518757186830044,617.5344987916651
2025-10-03 13:43:14.043344,0.4156903648003936,0.10321467611007393,-9.800648548007011,617.6635947916657,-0.038624550439417364,0.022673519728705287,-0.0024686944484710693,617.6635947916657,0.37437149047851564,0.12783416748046875,-9.804760894775391,617.6685597916658,0.001223517581820488,0.000991298584267497,0.0004756893031299114,617.6635947916657
2025-10-03 13:43:14.172775,0.4159646357595921,0.10298052253201605,-9.800637438297272,617.7926897916659,-0.04982598837465048,0.002250648122280836,0.005006386041641235,617.7926897916659,0.37242553710937504,0.1251397705078125,-9.80565902709961,617.7976557916663,-9.972043335437775e-05,0.0016843726625666022,0.0005482947453856468,617.7926897916659
2025-10-03 13:43:14.293942,0.4150718024745584,0.10421250346116723,-9.800659657716752,617.9118557916663,-0.03740723323076964,-0.030715369004756212,0.0005408674478530884,617.9118557916663,0.3746708679199219,0.052690429687500005,-9.790241088867187,617.9168207916664,-0.0029549894388765097,-0.0030133849941194057,-0.0020957482047379017,617.9118557916663
2025-10-03 13:43:14.431755,0.41470255080610513,0.10485354102216661,-9.800671352148056,618.0508813333327,-0.054252074807882314,-0.0838971018511802,-0.009629194736480714,618.0508813333327,0.3549119567871094,-0.0059875488281250005,-9.807006225585939,618.0558463333327,0.0011240653693675995,0.0028720072004944086,-0.0004126434214413166,618.0508813333327
2025-10-03 13:43:14.573514,0.41545187149196866,0.10119306525215507,-9.800676029920579,618.1998373333299,0.06684511352330447,0.2040222179889679,0.11057727992534638,618.1998373333299,0.45460464477539064,0.26494903564453126,-9.7956298828125,618.1948723333335,-0.0009984583593904972,-0.00774431973695755,-0.001856453251093626,618.1998373333299
2025-10-03 13:43:14.692933,0.4145543238893151,0.10018959168344736,-9.800725731253625,618.3090723333335,0.6061730991303921,0.1911046588048339,0.14894612431526186,618.3090723333335,0.10747650146484375,0.37362304687500003,-10.047705688476563,618.3140373333299,-0.008948852308094501,0.018829721957445145,-0.021989725530147552,618.3090723333335
2025-10-03 13:43:14.815509,0.4176304709538818,0.09918339550495148,-9.800602939724923,618.4381683333304,-0.0032921285927295686,-0.12942051708698274,-0.02705857515335083,618.4381683333304,0.42002655029296876,-0.05583389282226563,-9.79128890991211,618.4332033333303,0.003720408771187067,0.004490942694246769,-0.001112035010010004,618.4381683333304
2025-10-03 13:43:14.935267,0.4210323810204864,0.09789036598987878,-9.800473716259003,618.5573333333305,-0.11611638385802509,-0.6271896732598543,0.011279278993606569,618.5573333333305,0.3043171691894531,-0.49517028808593755,-9.78889389038086,618.5622983333305,0.004292329773306847,0.00804927758872509,-0.004257728811353445,618.5573333333305
2025-10-03 13:43:15.067008,0.42521211694926025,0.09292855583131314,-9.800343908071518,618.686429333331,-0.008478608876466752,0.1567522485740483,0.015787482261657715,618.686429333331,0.41808059692382815,0.2537223815917969,-9.804311828613281,618.681464333331,0.00221896730363369,-0.0003241733065806329,-0.0038087773136794567,618.686429333331
2025-10-03 13:43:15.192032,0.42988126482814554,0.09108914969488979,-9.800156212449075,618.8155243333313,-0.0591021940112114,-0.053666942110285165,-0.005206360816955567,618.8155243333313,0.3626957702636719,0.0209564208984375,-9.807904357910157,618.8105593333312,0.004103341139853001,0.012548179365694523,0.004484046250581741,618.8155243333313
2025-10-03 13:43:15.319955,0.4408914257213474,0.07103782752994449,-9.799832861423493,618.9446204583328,-0.4429869581758976,0.08403970995917917,-0.19817851066589356,618.9446204583328,0.10343490600585938,0.16780105590820313,-9.9393310546875,618.9396554583327,0.0527556873857975,-0.020256007090210915,-0.09363631904125214,618.9446204583328
2025-10-03 13:43:15.443072,0.28517678383737805,-0.4742096645012498,-9.7943815022707,619.0637864583332,1.307660929709673,1.3214477871358394,-2.658822512626648,619.0637864583332,1.9788848876953127,1.3268408203125002,-13.240266723632812,619.0687514583333,1.0386347770690918,-0.4940001666545868,0.022637788206338882,619.0637864583332
2025-10-03 13:43:15.591836,-7.2130030220747,-1.531590578109026,-6.470154034495354,619.1928814583334,-8.407013813853265,2.9680039805173877,-2.67732310295105,619.1928814583334,-17.56118133544922,1.0557545471191407,-7.643106079101563,619.1978464583335,0.7770552635192871,-14.73548412322998,-1.1063767671585083,619.1928814583334
2025-10-03 13:43:15.715294,-1.9303724397718907,-3.8252727457880975,8.824797372221948,619.341838458331,-0.34280047282576565,1.331458658874035,-12.339040052890779,619.341838458331,-2.2082080078125,-2.322570190429688,-3.3642539978027344,619.336873458331,-0.020091587677598,-15.152305603027344,-1.6883797645568848,619.341838458331
2025-10-03 13:43:15.845970,7.363809145689011,-1.8894124017655851,6.200043661594391,619.4610034583311,3.154517880678177,-0.06866575375199319,-1.7474029755592346,619.4610034583311,9.262887725830078,-1.849853210449219,1.8121316528320313,619.456038458331,2.179478168487549,-5.541230201721191,-1.8220877647399902,619.4610034583311
2025-10-03 13:43:15.987404,8.762860155701638,0.4703609540686012,-4.384874087870121,619.6099604583324,10.911624784469605,0.7925625997781754,-35.948003554344176,619.6099604583324,39.996975860595704,-1.4199472045898438,-33.25769027709961,619.6049954583323,1.8134188652038574,-0.6928640007972717,-0.14907965064048767,619.6099604583324
2025-10-03 13:43:16.130145,8.625729500055314,0.25035922760143875,-4.6658594048023225,619.7489864583331,-1.800371732711792,1.145937031209469,3.6434848576784136,619.7489864583331,6.899452514648438,1.1895762634277345,-1.9167640686035157,619.7539514583332,0.5016449093818665,-1.3603992462158203,0.4450167715549469,619.7489864583331
2025-10-03 13:43:16.250483,7.141178163886071,-0.5048274763673544,-6.707075611352921,619.8681514583332,-0.60157674908638,-1.4261570937931538,-1.4229684609174729,619.8681514583332,6.065087585449219,-1.8468594360351565,-8.112080841064454,619.87311745833,-0.18902549147605896,-2.9598257541656494,0.6684409976005554,619.8681514583332
2025-10-03 13:43:16.371176,4.115673541724682,-0.3108310039713979,-8.899479179978371,619.9972474166643,1.2599480885267258,-0.6697796957194806,-1.647289288043976,619.9972474166643,5.198539581298828,-0.9066645812988282,-10.376871185302734,619.9922824166642,-0.3903977870941162,-3.3726141452789307,-0.07049762457609177,619.9972474166643
2025-10-03 13:43:16.492959,0.27142440671101214,0.22052963867783548,-9.80376452922821,620.1164124166644,-23.60205910921097,-6.54652451813221,-8.816165127754212,620.1164124166644,-6.854695587158203,4.070485382080078,-58.34058013916016,620.1114474166643,-2.104928731918335,-0.6866713762283325,0.42020922899246216,620.1164124166644
2025-10-03 13:43:16.616327,0.3189731055870652,0.12327885758131743,-9.804037009477616,620.2355784166648,6.2996632593870165,0.019075097534805536,7.272801911830903,620.2355784166648,2.348915405273438,-0.2231858825683594,-7.893535308837891,620.2405434166649,0.1925305277109146,-0.009177451953291893,0.004766139201819897,620.2355784166648
2025-10-03 13:43:16.749360,0.33309438720345497,0.11567689251154661,-9.803663957118989,620.3646744166654,-0.008569167628884315,-0.014636978628113867,0.24798275470733644,620.3646744166654,0.5782475280761719,0.011226654052734375,-9.602232055664063,620.3696394166654,-0.011637305840849876,-0.04538220539689064,-0.00793551653623581,620.3646744166654
2025-10-03 13:43:16.873911,0.3255314522981644,0.1200820934213698,-9.803865686058998,620.4937694166656,-0.04217055782675743,-0.44805002566426994,0.24938023924827576,620.4937694166656,0.2947370910644531,-0.2900967407226563,-9.40329574584961,620.498735416666,-0.007102911360561848,-0.017741845920681953,0.005265030078589916,620.4937694166656
2025-10-03 13:43:16.999416,0.328525628708303,0.11750342563726009,-9.803790256977083,620.612935416666,0.09883555926382542,0.05613544469699264,0.10141937077045442,620.612935416666,0.4631369018554688,0.1874102783203125,-9.815388793945313,620.6179004166661,0.007892845198512077,0.007788252085447311,0.0010923019144684076,620.612935416666
2025-10-03 13:43:17.127478,0.3332298964262009,0.11475131481885911,-9.80366629600525,620.7519614166667,0.3408183763548732,-0.11385320076718927,-0.03327650427818298,620.7519614166667,0.9849517822265625,-0.029189300537109376,-9.59774139404297,620.7469964166667,0.007147772703319788,0.021910687908530235,-0.01957745850086212,620.7519614166667
2025-10-03 13:43:17.266536,0.35926290649920706,0.0990714578703046,-9.802919021844865,620.8909874166638,-0.42931722778826953,-0.285134537704289,0.025850540399551394,620.8909874166638,0.06511459350585938,-0.20582199096679688,-9.811197509765625,620.8860224166638,0.0017808289267122746,0.02455253340303898,-0.016766894608736038,620.8909874166638
2025-10-03 13:43:17.401842,0.27962068643420934,0.13675895545631647,-9.805057933330536,621.020083833333,-0.8640055616945028,-0.081972929360345,0.040715916752815245,621.020083833333,0.4324507141113281,0.0473016357421875,-10.26265869140625,621.0250488333331,-0.09479322284460068,0.008905390277504921,-0.10435124486684799,621.020083833333
2025-10-03 13:43:17.518818,0.327509053722024,0.1098311843443662,-9.803915972113609,621.1392488333331,0.0730579263344407,0.024738975567743182,-0.35530722856521607,621.1392488333331,0.12469070434570313,0.14699432373046875,-10.161469116210938,621.1442148333299,-0.009026726707816124,-0.02278287149965763,-0.09029389917850494,621.1392488333331
2025-10-03 13:43:17.642991,0.25268627325072884,0.13155915448442101,-9.805864264369012,621.26834483333,-0.22050312520936133,0.32723679274320605,-0.7965895771980286,621.26834483333,-0.298179931640625,0.5051994323730469,-10.432555389404298,621.26337983333,0.03375358134508133,0.05960450693964958,0.01361849159002304,621.26834483333
2025-10-03 13:43:17.764759,0.24850882139056923,0.1284078981075436,-9.806013368368149,621.3875108333305,0.47299084894359117,0.4529831387847662,0.6862257206439972,621.3875108333305,0.5828878784179687,0.571212158203125,-9.100176086425781,621.38254483333,0.054404936730861664,0.30606815218925476,0.18946385383605957,621.3875108333305
2025-10-03 13:43:17.898109,0.3467051338031888,0.10256917091086508,-9.80333534359932,621.5166058333307,2.989557109773159,-0.17846135230734944,-0.6206877887248993,621.5166058333307,2.894530792236328,-0.09370513916015626,-10.397079162597656,621.5215718333311,-0.009948093444108963,0.0016541206277906895,0.10382801294326782,621.5166058333307
2025-10-03 13:43:18.019282,0.3225594587624073,0.1075079850666225,-9.804104837179185,621.6457018333313,0.030256819389760495,-0.16379096232354642,-0.0873240727186203,621.6457018333313,0.3573069763183594,-0.043559417724609376,-9.875863037109376,621.6407368333312,-0.0021750309970229864,-0.0005765995592810214,-0.0020387079566717148,621.6457018333313
2025-10-03 13:43:18.149082,0.32293781016021966,0.10644822291098535,-9.804107176065445,621.7747978333318,-0.008441771417856217,-0.1567436422035098,-0.017569713592529297,621.7747978333318,0.29593460083007816,-0.045954437255859376,-9.81568817138672,621.7698328333317,-0.0019211340695619583,0.0017810431309044361,0.003078876994550228,621.7747978333318
2025-10-03 13:43:18.287937,0.32384869672358035,0.10508726519532502,-9.804091388583183,621.9038938333324,0.029416757225990298,0.08112553076818586,-0.0008209490776062013,621.9038938333324,0.33545242309570317,0.1675016784667969,-9.800569610595703,621.9088588333325,0.0010639522224664688,-0.0008640778250992298,0.000542669091373682,621.9038938333324
2025-10-03 13:43:18.411071,0.32795534245669844,0.10638385785743595,-9.803939945697785,622.0329899583303,-0.0008854877203702927,-0.07225482953712345,-0.038093440532684326,622.0329899583303,0.32063323974609376,0.00089813232421875,-9.790390777587891,622.0280249583302,-0.0025272141210734844,-0.003164638066664338,0.0006408304907381535,622.0329899583303
2025-10-03 13:43:18.550049,0.3268435674905777,0.10658536752685906,-9.80397619843483,622.1620859583309,-0.011748773865401746,-0.06766629100777209,-0.03326831817626953,622.1620859583309,0.29713211059570316,0.027093658447265627,-9.815388793945313,622.167050958331,0.00029318686574697495,0.0008740242919884622,-0.0044677769765257835,622.1620859583309
2025-10-03 13:43:18.673770,0.33574825566262007,0.10307680059224368,-9.803708980679513,622.3011119583316,-0.13830894269049168,-0.04110568849369884,0.02873848021030426,622.3011119583316,0.23590942382812502,0.06780899047851563,-9.79173797607422,622.2961469583315,0.00901704654097557,0.0370883084833622,0.002814667299389839,622.3011119583316
2025-10-03 13:43:18.811493,0.33807478968054056,0.10409427093341947,-9.803618348836899,622.4302079583322,-0.0630966828390956,0.13061761572025718,0.03224037766456604,622.4302079583322,0.3212319946289063,0.3047662353515625,-9.807455291748047,622.4351739583326,0.002916431985795498,0.0034278426319360733,0.005335479974746704,622.4302079583322
2025-10-03 13:43:18.937850,0.3375175500288606,0.10365117989480496,-9.803644661307336,622.5593039583327,0.04538627061992884,0.057862968016415835,-0.007254055738449097,622.5593039583327,0.35745666503906254,0.10388397216796875,-9.81,622.5642689583328,-0.00010488089174032211,0.0002425751881673932,-0.0010963440872728825,622.5593039583327
2025-10-03 13:43:19.067651,0.34444072645157575,0.10133259443566203,-9.803425390720369,622.6883999583333,0.06825100343674421,-0.46836935587227346,0.014833216667175294,622.6883999583333,0.4025129699707031,-0.2954855346679688,-9.727521514892578,622.6933649583334,-0.002054478507488966,-0.004281649831682444,0.0013152004685252905,622.6883999583333
2025-10-03 13:43:19.184065,0.34374940283596517,0.1005070041306317,-9.803461058735849,622.8075659583301,0.025532707683742047,0.05921087913215161,0.007082147598266602,622.8075659583301,0.37242553710937504,0.12020004272460938,-9.792636108398439,622.8125309583302,0.001323450356721878,0.0009049382642842829,0.0013755965046584606,622.8075659583301
2025-10-03 13:43:19.331908,0.3428339846804738,0.09998867587186397,-9.803495557308198,622.9465915416658,0.04021941505372525,0.25956362212076783,0.012508363723754884,622.9465915416658,0.3872447204589844,0.367635498046875,-9.794731750488282,622.9416265416658,-0.00016643386334180832,-0.0031291479244828224,0.0018411055207252502,622.9465915416658
2025-10-03 13:43:19.448270,0.3405600025132299,0.1030726984050125,-9.803545258641243,623.0756875416664,0.002526545338332653,-0.19468220461159946,0.0032756102085113527,623.0756875416664,0.33440460205078126,-0.09116043090820312,-9.80416213989258,623.0707225416663,-0.0014484275598078966,-0.0007428510580211878,0.00016342895105481148,623.0756875416664
2025-10-03 13:43:19.570916,0.3461756318807602,0.10067817223258317,-9.80337451994419,623.1948535416668,0.005592861771583558,-0.10816259913146496,-0.011565792560577394,623.1948535416668,0.34712814331054687,0.012573852539062501,-9.814640350341797,623.1898885416667,0.0025625317357480526,0.005031493958085775,-0.00032744836062192917,623.1948535416668
2025-10-03 13:43:19.699570,0.34741220835596326,0.09951538944616914,-9.803340021371842,623.3140185416632,0.016031968966126443,-0.001169899944216013,0.0006759381294250489,623.3140185416632,0.3384461975097656,0.06466552734375,-9.813293151855468,623.3189845416637,0.002591397613286972,0.0005157932755537331,0.000268617644906044,623.3140185416632
2025-10-03 13:43:19.825310,0.345840367153287,0.09952860049903393,-9.803394985198976,623.4530455416643,0.03661424115300179,0.25029390323907136,0.010910319685935975,623.4530455416643,0.38035903930664067,0.31823822021484377,-9.787397003173828,623.4480805416642,-0.001841250341385603,0.0017376437317579985,0.0017648260109126568,623.4530455416643
2025-10-03 13:43:19.958493,0.3420488863438368,0.10185714449733496,-9.803503743410111,623.5821415416649,-0.011386575400829315,-0.17056430384516716,-0.01876839280128479,623.5821415416649,0.3396437072753906,-0.0688568115234375,-9.815538482666016,623.5771765416648,-0.002217702567577362,-0.002585560781881213,-0.0032869521528482437,623.5821415416649
2025-10-03 13:43:20.090769,0.3469220655038953,0.0992346134595573,-9.803363994956017,623.7013075416653,0.01846813827753067,0.025605788743123414,0.002193875312805176,623.7013075416653,0.3882925415039063,0.12978012084960938,-9.811646575927735,623.7062725416654,0.003253597766160965,0.0054030874744057655,0.0037982624489814043,623.7013075416653
2025-10-03 13:43:20.242166,0.35373509500175715,0.09772159159183502,-9.803130691051484,623.8601945416667,0.0031226689741015437,-0.19771367529407144,-0.001327902674674988,623.8601945416667,0.3448828125,-0.13217514038085937,-9.806706848144533,623.8651595416668,-0.003379485569894314,0.0004465167294256389,0.0018073983956128359,623.8601945416667
2025-10-03 13:43:20.369057,0.3508687898889184,0.0970767807494849,-9.803245296478272,623.9892905833331,0.010629543699324132,-0.03989567116834224,0.017193152904510497,623.9892905833331,0.33679962158203125,0.06556365966796876,-9.782157897949219,623.9942565833335,0.0022156513296067715,-0.0034742022398859262,0.0019707372412085533,623.9892905833331
2025-10-03 13:43:20.494295,0.35187663059681656,0.09606776146218181,-9.803216645121575,624.11838658333,0.04973817050457001,0.1679831235855818,0.006988007426261903,624.11838658333,0.39353164672851565,0.2794688415527344,-9.795929260253907,624.1134215833299,-0.0006505288183689117,0.004816982429474592,-0.004189321305602789,624.11838658333
2025-10-03 13:43:20.637533,0.3499623983725906,0.09901175231672824,-9.803257575631141,624.2474835833309,-0.021245931163430216,0.12447351682931185,0.0058296740055084235,624.2474835833309,0.3303630065917969,0.2321672058105469,-9.791139221191406,624.252448583331,0.0024040862917900085,0.002848772332072258,-0.0010995948687195778,624.2474835833309
2025-10-03 13:43:20.755561,0.34770237643271684,0.10086915691383183,-9.803317217230797,624.3765795833315,0.09762156765908003,-0.005218055248260498,-0.0036884236335754396,624.3765795833315,0.3879931640625,0.10433303833007813,-9.781259765625,624.3815445833316,-0.002979857847094536,-0.011851360090076923,0.003416201798245311,624.3765795833315
2025-10-03 13:43:20.882896,0.3482102802023292,0.1008564209472388,-9.803297921419144,624.505675583332,0.05190759714692831,0.03311496580950916,0.007520104050636292,624.505675583332,0.4315525817871094,0.12229568481445313,-9.805808715820312,624.500710583332,-0.0009064041078090668,-0.002076501492410898,0.0015757358632981777,624.505675583332
2025-10-03 13:43:21.006101,0.35099629573524,0.10009377043694258,-9.80320728957653,624.6248415833325,-0.05970204524695873,0.022501282682642343,-0.01831815719604492,624.6248415833325,0.31793884277343754,0.13262420654296875,-9.816436614990234,624.619875583332,0.0023178397677838802,0.008221568539738655,-0.00032090721651911736,624.6248415833325
2025-10-03 13:43:21.146297,0.352985701225698,0.09903669434599578,-9.80314589381218,624.7638675833332,0.10311575766652822,0.015026092557236553,0.05257348537445069,624.7638675833332,0.4314028930664063,0.1627116394042969,-9.780661010742188,624.7688325833333,-0.009980207309126854,-0.017912019044160843,0.008783021941781044,624.7638675833332
2025-10-03 13:43:21.261624,0.3502248287200928,0.10043171209283173,-9.803231847882271,624.88303358333,0.017111255340278148,-0.19937596561387183,-0.05421947658061981,624.88303358333,0.27333160400390627,-0.09909393310546875,-9.856702880859375,624.88799858333,0.0006990209221839905,0.0017752902349457145,-0.002760389819741249,624.88303358333
2025-10-03 13:43:21.380583,0.35329856380820274,0.09921761085279286,-9.80313127577305,625.0021995833304,0.04202927447855473,-0.3378214590623975,-0.08620082259178162,625.0021995833304,0.6093827819824219,-0.18067428588867188,-9.87556365966797,625.0071645833305,0.006350737530738115,0.0038868053816258907,0.0018882164731621742,625.0021995833304
2025-10-03 13:43:21.505125,0.34671628005802635,0.10073040431365371,-9.803352885246277,625.1213645833304,0.036935874558985234,0.09206864967942238,0.010567672848701477,625.1213645833304,0.38470001220703126,0.17962646484375,-9.796378326416017,625.1263305833309,-0.0010935822501778603,-0.006219177506864071,0.0013496116735041142,625.1213645833304
2025-10-03 13:43:21.637228,0.3509645015001297,0.09946137579157949,-9.803212552070619,625.2504615833313,-0.009225261770188809,-0.04482502014376223,-0.027142190337181092,625.2504615833313,0.33215927124023437,0.04879852294921875,-9.831854553222657,625.2454955833309,0.0035592527128756046,0.01055043563246727,0.0010796596761792898,625.2504615833313
2025-10-03 13:43:21.777446,0.3817075899615884,0.08117223540320993,-9.80223548233509,625.3994185833326,0.011374990604817867,0.5386887387558819,-0.2595415306091309,625.3994185833326,0.3351530456542969,0.5066963195800781,-10.008636932373047,625.3944535833325,0.058726828545331955,0.047185614705085754,-0.025780748575925827,625.3994185833326
2025-10-03 13:43:21.903371,0.2799776224046946,-0.7135910553485155,-9.780006122589112,625.518584583333,0.5025950459763407,1.6915073946118355,-3.0116446745395664,625.518584583333,0.35745666503906254,0.9539662170410157,-12.738659820556641,625.5235495833331,1.5994313955307007,-0.26078805327415466,0.006388968788087368,625.518584583333
2025-10-03 13:43:22.055856,-8.604192450642586,-2.2986717429757118,-4.113405406773091,625.6774715833308,-6.3497119170427325,-3.676602902412415,-0.2831028860807419,625.6774715833308,-13.633948059082032,-5.813909912109375,-6.516698455810547,625.6725065833307,-1.4243541955947876,-14.807907104492188,-0.6493390798568726,625.6774715833308
2025-10-03 13:43:22.178585,-2.796123322248459,-1.7502299581468106,9.23874925017357,625.7966375833312,1.0393764960765839,0.21861496791243554,-12.753141034841539,625.7966375833312,-0.9300160217285157,-1.295555877685547,-2.6255401611328124,625.8016025833313,1.3803290128707886,-13.79748821258545,-0.5590071082115173,625.7966375833312
2025-10-03 13:43:22.303499,9.386249942779541,0.46025097202509646,2.814708989560604,625.9257335833317,-7.665428409576417,0.8501241986453534,-3.793074468076229,625.9257335833317,1.5849041748046875,1.6890875244140626,-0.13322296142578124,625.9306995833322,0.7497702836990356,-8.297954559326172,-2.0831010341644287,625.9257335833317
2025-10-03 13:43:22.440539,6.66499612390995,2.154990890175104,-6.8680389332771306,626.0548305416633,4.353740880489349,-1.968628140538931,-6.15053937971592,626.0548305416633,7.646997985839844,0.7837701416015626,-19.315982208251953,626.0597955416633,0.4367811977863312,-7.745260238647461,-0.9148573279380798,626.0548305416633
2025-10-03 13:43:22.571697,-0.24155624443665147,1.6453904047608376,-9.668009138703347,626.193856541664,25.22325578212738,-1.667694316506386,-21.95163571357727,626.193856541664,25.54707458496094,-0.22408401489257815,-28.971204071044923,626.1888915416639,1.048081398010254,2.750575304031372,1.002770185470581,626.193856541664
2025-10-03 13:43:22.690104,0.41529198668897155,0.45076024666428566,-9.790836920142175,626.3130225416644,3.795152276158333,0.504553205408156,6.904088187217713,626.3130225416644,1.8610798645019533,1.1356883239746094,-6.041885833740235,626.3080575416643,1.453616738319397,0.16661806404590607,0.5394867658615112,626.3130225416644
2025-10-03 13:43:22.816588,0.3902671827748418,0.07277641030959785,-9.801965925693512,626.4421195416653,-4.788570826649666,-1.1825685947388411,24.57818627357483,626.4421195416653,-1.730401611328125,-0.8098159790039063,1.17595458984375,626.4371535416649,0.10341808944940567,-0.16608677804470062,-0.020830903202295303,626.4421195416653
2025-10-03 13:43:22.945312,0.36390435319393877,0.045867076199501755,-9.803138877153398,626.5612845416654,-0.3565696789696813,0.030773539664223793,0.8493606984615326,626.5612845416654,0.6878196716308594,0.051492919921875005,-9.045390014648438,626.5662505416658,-0.012215645052492619,0.025934049859642982,0.01196357049047947,626.5612845416654
2025-10-03 13:43:23.083322,0.3619217816367746,0.04539333752822131,-9.803218984007836,626.7003115416665,-0.05835301950573921,0.382866106107831,-0.6155667972564698,626.7003115416665,0.4616400146484375,0.3683839416503906,-9.714498596191406,626.7052765416665,0.00900830328464508,-0.006548493634909391,-0.012940495274960995,626.7003115416665
2025-10-03 13:43:23.205702,0.3622081490233541,0.045875796773470943,-9.803202027082444,626.8194775416669,0.07518221978098154,0.11144703498110176,-0.12011058032512666,626.8194775416669,0.31374755859375003,0.12334350585937501,-10.129735107421876,626.8244425416633,-0.004818181972950697,-0.0019796411506831646,-0.004497996997088194,626.8194775416669
2025-10-03 13:43:23.347251,0.3623968313634396,0.046579591403715315,-9.803195595145226,626.9684342916662,-0.08547262497246266,-0.019186541810631754,-0.1353887701034546,626.9684342916662,0.3418890380859375,0.01945953369140625,-9.79997085571289,626.9634692916661,-0.0030479738488793373,-0.0014958074316382408,-0.0012620631605386734,626.9684342916662
2025-10-03 13:43:23.470416,0.3626829429343343,0.046248319228179756,-9.80318507015705,627.0975312916635,-0.011363478899002076,0.07829270096495748,0.14032849788665772,627.0975312916635,0.3234773254394531,0.13397140502929689,-9.770033111572266,627.0925652916667,-0.0014268751256167889,0.006043066270649433,0.0026640924625098705,627.0975312916635
2025-10-03 13:43:23.599668,0.3622404548898339,0.04648904635570943,-9.803199688196182,627.2166962916635,-0.009124762751162053,0.06667562192771584,-0.12520408987998963,627.2166962916635,0.3255729675292969,0.09131011962890626,-9.598639526367188,627.221662291664,0.005525801796466112,-0.0005977267283014953,0.0030699078924953938,627.2166962916635
2025-10-03 13:43:23.720904,0.36079023577272895,0.04741527272388339,-9.80324938952923,627.3457932916644,-0.07713007349520921,0.13310932444408535,-0.00031458020210266117,627.3457932916644,0.26884094238281253,0.18815872192382813,-9.849218444824219,627.340827291664,-4.321057349443436e-05,-0.003398606553673744,-0.0010713022202253342,627.3457932916644
2025-10-03 13:43:23.855914,0.3627012885734439,0.049508763221092524,-9.803166359066964,627.474889291665,-0.005244660079479217,0.08655828846618534,0.007388541698455811,627.474889291665,0.3400927734375,0.13442047119140627,-9.880054321289062,627.4798542916651,0.00039952853694558144,0.0021089164074510336,-0.0009022913873195648,627.474889291665
2025-10-03 13:43:23.975298,0.3636938899755478,0.0512100654328242,-9.80312133550644,627.5940552916654,0.12743476610630752,0.4735985939204693,0.2228946912288666,627.6039852916656,0.4980143737792969,0.5282514953613282,-9.843380584716797,627.5990202916655,-0.004492706153541803,-0.0006819824338890612,0.004209223203361034,627.6039852916656
2025-10-03 13:43:24.101035,0.3721682596206665,0.0528922271495685,-9.802792721986771,627.7132212916658,-0.004981900826096535,0.047548881601542234,0.014799302816390992,627.7132212916658,0.3585044860839844,0.080233154296875,-9.792935485839845,627.7181862916659,-0.0011253273114562035,0.0048371534794569016,0.002405689563602209,627.7132212916658
2025-10-03 13:43:24.231549,0.37165677443146705,0.05359355498570949,-9.802809094190598,627.8522482916633,-0.07242909483611584,-0.29159863460808993,-0.010332614779472352,627.8522482916633,0.2974314880371094,-0.24144790649414063,-9.798623657226562,627.8472822916665,0.0031376690603792667,0.0009218736668117344,0.002711487002670765,627.8522482916633
2025-10-03 13:43:24.357035,0.374092578291893,0.05282623127102852,-9.802724894285202,627.9714148333333,-0.032652533277869225,-0.1284190260898322,-0.004433358907699585,627.9714148333333,0.3501219177246094,-0.08831634521484376,-9.8052099609375,627.9763798333333,4.650279879570007e-05,0.0008382847299799323,0.00016674911603331566,627.9714148333333
2025-10-03 13:43:24.472294,0.3739946008846164,0.04824557734653354,-9.802747698426247,628.1005108333302,-0.005610768869519234,0.12344736702740193,0.004126380085945129,628.1005108333302,0.3607498168945313,0.16600479125976564,-9.814490661621095,628.0955458333301,0.0006685401313006878,-0.0004354014527052641,-0.0001659989356994629,628.1005108333302
2025-10-03 13:43:24.607857,0.37450473390519623,0.051249876748770476,-9.802714954018594,628.2296078333311,-0.009713321551680565,0.042604951132088904,-0.005488196611404419,628.2296078333311,0.360450439453125,0.09071136474609376,-9.80955093383789,628.2345728333312,-0.0013793946709483862,-0.0008145746542140841,0.0002949037589132786,628.2296078333311
2025-10-03 13:43:24.733404,0.3745784453675151,0.05825531161855906,-9.802674608230591,628.3587038333317,-0.011732913292944432,-0.010055538984015585,0.004648536443710327,628.3587038333317,0.36000137329101567,0.054935760498046875,-9.798324279785156,628.3537388333316,0.0014034644700586796,0.0005272075650282204,-0.002346271649003029,628.3587038333317
2025-10-03 13:43:24.860074,0.37466703068464996,0.05883427276276052,-9.802663498520852,628.4778698333321,0.0006025190278887749,0.07902902986854315,-0.008381398916244507,628.4778698333321,0.3746708679199219,0.13995895385742188,-9.80131805419922,628.4828348333322,-0.0021948907524347305,0.00021973613183945417,0.0019568067509680986,628.4778698333321
2025-10-03 13:43:24.993845,0.37440580632537607,0.06737110254820436,-9.802621983289718,628.6168968333332,-0.005123732350766659,0.05387676122132689,0.009087742567062379,628.6168968333332,0.36598892211914064,0.1197509765625,-9.790390777587891,628.6119318333331,0.0011810106225311756,-5.742817302234471e-05,-0.0004517277702689171,628.6168968333332
2025-10-03 13:43:25.117301,0.37425885848701,0.07503990860190243,-9.802572866678238,628.7360628333299,-0.0021326622739434244,0.020461499774828553,0.004397106170654297,628.7360628333299,0.3710783386230469,0.09235794067382813,-9.799372100830078,628.74102783333,0.0022528180852532387,0.0021304236724972725,-0.0007862299680709839,628.7360628333299
2025-10-03 13:43:25.249913,0.3749818301573396,0.07708367949351669,-9.802526673674583,628.8651588333305,-0.006298547610640526,0.08562795077450575,0.0022576099634170534,628.8651588333305,0.37018020629882814,0.1694476318359375,-9.80326400756836,628.8601938333304,0.00012259185314178467,-0.0005682932096533477,0.002374390373006463,628.8651588333305
2025-10-03 13:43:25.374399,0.37529377911239864,0.08111587372608484,-9.802484573721886,628.9942550416636,-0.023674937635660174,-0.07258361664600671,0.0014641427993774415,628.9942550416636,0.3514691162109375,0.025896148681640627,-9.782906341552735,628.9992200416636,0.003333190456032753,0.0005397244240157306,-0.002281823195517063,628.9942550416636
2025-10-03 13:43:25.491745,0.37215521302074195,0.07919245954602958,-9.802620229125024,629.113421041664,0.0022163140028715134,-0.008090308075770736,-0.009327478408813476,629.113421041664,0.3784130859375,0.07200027465820313,-9.839039611816407,629.118386041664,0.0008589592762291431,-0.011395069770514965,0.001538723474368453,629.113421041664
2025-10-03 13:43:25.616410,0.3695854713767767,0.07755373167805374,-9.802727817893029,629.2325870416644,-0.022906430773437025,0.08036785952746868,0.019972334504127505,629.2325870416644,0.39053787231445314,0.1537303161621094,-9.814939727783203,629.2276220416643,0.0010838848538696766,0.0016547900158911943,-0.0001105479896068573,629.2325870416644
2025-10-03 13:43:25.761775,0.36912898655980825,0.07788398972712457,-9.80274243593216,629.381545041666,-0.00778048787266016,0.02614965288899839,0.014149092435836792,629.381545041666,0.3546125793457031,0.10747650146484375,-9.80416213989258,629.386510041666,0.001526426523923874,-0.002182324882596731,0.0014942777343094349,629.381545041666
2025-10-03 13:43:25.878481,0.3684013005718589,0.07960103373974563,-9.802757053971291,629.5007110416664,-0.001514282673597336,0.01200844505801797,0.020150089859962465,629.5007110416664,0.3673361206054688,0.10223739624023438,-9.791588287353516,629.5056760416664,0.0013769129291176796,0.0013201035326346755,-0.00026232050731778145,629.5007110416664
2025-10-03 13:43:26.008553,0.3678830910846591,0.08300917474552989,-9.80274594426155,629.6298070416633,-0.0065345923975110055,0.021323845311999323,-0.0053057634830474855,629.6298070416633,0.3622467041015625,0.10133926391601562,-9.790091400146485,629.6248420416669,-0.0014561447314918041,0.00021577667212113738,-0.002177602145820856,629.6298070416633
2025-10-03 13:43:26.132798,0.3676634915918112,0.0851858190447092,-9.802737173438073,629.7589040416642,-0.009608108215034009,0.010764641789719464,-0.007711308002471925,629.7589040416642,0.3598516845703125,0.09894424438476564,-9.812544708251954,629.7539390416641,-0.0010031284764409065,0.00018977560102939606,0.0001966622658073902,629.7589040416642
2025-10-03 13:43:26.264931,0.3672857249155641,0.08676571844145656,-9.802736588716508,629.8780700416646,-0.011326020173728467,0.0175672924797982,-0.0018728631734848023,629.8780700416646,0.3591032409667969,0.10298583984375001,-9.798623657226562,629.8731050416645,0.0009794235229492188,-0.0009565246291458607,-0.002208768855780363,629.8780700416646
2025-10-03 13:43:26.393857,0.36666570078581573,0.08780612996779383,-9.802755299806595,630.0170976666668,-0.0009760099276900292,0.09885573215782643,-0.005152566432952881,630.0170976666668,0.3459306335449219,0.18755996704101563,-9.797276458740235,630.0121326666667,0.001326107420027256,-0.0003998002503067255,-0.00015537114813923836,630.0170976666668
2025-10-03 13:43:26.515450,0.3668621672317386,0.08848620682954789,-9.802737758159639,630.1362636666636,-0.012399313151836396,-0.0010680122114717961,0.0036662042140960696,630.1362636666636,0.3561094665527344,0.11076965332031251,-9.812095642089844,630.1412286666637,-0.0007985746487975121,0.0003583170473575592,0.0006006364710628986,630.1362636666636
2025-10-03 13:43:26.645519,0.36503849375993014,0.08560301788151264,-9.802834821939468,630.255429666664,0.3479289560392499,-0.17451809970662,-0.42240402817726136,630.255429666664,0.9169931030273438,-0.05822891235351563,-9.954599304199219,630.2603956666644,-0.01359112374484539,0.017420489341020584,0.03003745526075363,630.255429666664
2025-10-03 13:43:26.799341,0.3464085703343153,0.08679760403931142,-9.803499065637588,630.4242486666662,-0.21108989372849465,-0.012551989434286953,-0.004107084274291992,630.4242486666662,0.13846206665039062,0.07529342651367188,-9.864486694335938,630.4192836666662,-0.0003906884230673313,0.003924661315977573,-8.350610733032227e-05,630.4242486666662
2025-10-03 13:43:26.914626,0.3321335800364614,0.08527935622259974,-9.804003680348396,630.5334846666665,0.0048156937211751944,0.3804022356122732,0.030679171085357667,630.5334846666665,0.2859054565429688,0.48873367309570315,-9.905950469970703,630.5384496666666,0.007785331923514605,-0.007521668449044228,0.0008339616470038891,630.5334846666665
2025-10-03 13:43:27.044103,0.3241769813373685,0.08290920563042165,-9.804292532801629,630.6625806666634,0.11785384744405747,0.5351555221527815,0.07587230086326599,630.6625806666634,0.4441264343261719,0.6177653503417969,-9.786798248291015,630.6675466666638,-0.0019504132214933634,-0.020734228193759918,-0.0020909388549625874,630.6625806666634
2025-10-03 13:43:27.167076,0.31908833228051664,0.0816617569886148,-9.804467364549637,630.7916776666643,0.02908755898475647,0.3997371505200863,0.020514956116676333,630.7916776666643,0.350870361328125,0.47840515136718753,-9.793833618164063,630.7867126666642,0.0004075579345226288,0.004387150518596172,-0.0014802445657551289,630.7916776666643
2025-10-03 13:43:27.303295,0.32308004368096593,0.08373750027269125,-9.804318845272064,630.9207746666652,-0.0008003010973334313,0.28689177218824624,-0.07034492790699005,630.9207746666652,0.27722351074218754,0.3249742126464844,-9.754465484619141,630.9257396666653,0.0007667355239391327,-0.0012300660600885749,-0.0015196860767900944,630.9207746666652
2025-10-03 13:43:27.428589,0.3235021030157805,0.0843884872365743,-9.804303057789802,631.0498709166641,-0.017837698794901373,-0.030201161205768587,0.008970798254013063,631.0498709166641,0.33021331787109376,0.07768844604492188,-9.801467742919922,631.0548369166645,0.0001276847906410694,0.003993350081145763,0.0020931358449161053,631.0498709166641
2025-10-03 13:43:27.556176,0.3228664375841618,0.08454318263567985,-9.804320014715195,631.178967916665,0.004053691886365414,0.028621490215882662,0.00614659309387207,631.178967916665,0.32168106079101566,0.11526031494140626,-9.797126770019531,631.1740029166649,-0.002400678349658847,-0.000902700237929821,-0.0005021006800234318,631.178967916665
2025-10-03 13:43:27.678259,0.3236324228346348,0.08339152783155442,-9.804305396676064,631.2981339166654,-0.03129035130143166,-0.10973675181157888,-0.004795886278152466,631.2981339166654,0.30326934814453127,-0.03562591552734375,-9.813293151855468,631.3030999166658,0.0015454702079296112,0.0014523530844599009,0.0007852308917790651,631.2981339166654
2025-10-03 13:43:27.801694,0.3233921022713184,0.08056062578223647,-9.804339310526847,631.4173009166661,-0.2826767336949706,-0.5375602626800537,-0.008356840610504152,631.4173009166661,0.03742218017578125,-0.42586441040039064,-9.818382568359375,631.4222659166662,0.001781912986189127,0.003120878478512168,-0.024239474907517433,631.4173009166661
2025-10-03 13:43:27.923667,0.32033927097916604,0.07001353239174933,-9.804519404768945,631.5463969166667,0.26569207057356836,-1.1407369561493397,-0.2889916169643402,631.5463969166667,0.028740234375,-0.7970924377441406,-10.330467681884766,631.5513619166668,0.016054324805736542,-0.08912117034196854,-0.16381920874118805,631.5463969166667
2025-10-03 13:43:28.054524,-3.1802544003725055,-1.0711450765281916,-9.218173483014107,631.675493916664,4.428059576153755,0.215823799520731,-5.374081181287766,631.675493916664,0.8174501037597657,-0.47975234985351567,-14.969470825195314,631.6705289166639,1.484630823135376,-7.041252613067627,-0.94261234998703,631.675493916664
2025-10-03 13:43:28.171284,-9.268910942673683,-1.5119053418934345,2.8350537917017937,631.7946599166644,4.511204643845558,0.7963932569324971,-4.461122072339058,631.7946599166644,-4.905299377441406,-1.0835966491699218,-1.8826350402832033,631.7896949166643,0.8499582409858704,-14.226545333862305,0.9639022946357727,631.7946599166644
2025-10-03 13:43:28.287463,4.190682793557644,-0.15712170124053956,8.868460285663605,631.9138259166648,-2.376455790996552,0.36339268527925017,-10.569373219013215,631.9138259166648,1.4412030029296876,0.15597564697265626,-2.1814137268066407,631.9088609166647,1.0672980546951294,-14.278061866760254,-0.11594022065401077,631.9138259166648
2025-10-03 13:43:28.419673,8.692066746354104,1.9444073653221132,-4.111369698643685,632.0429220416663,6.290876063704491,-1.5158485579490661,-8.135861467123032,632.0429220416663,4.3523492431640625,0.5358856201171875,-5.594765625,632.0379570416662,2.2339556217193604,-3.147862434387207,3.718738317489624,632.0429220416663
2025-10-03 13:43:28.539903,7.217518242001534,-0.8661025924980641,-6.587367319464684,632.1620880416667,22.65496220111847,-0.47211464367806916,-28.075001327991487,632.1620880416667,41.740999145507814,-3.30273193359375,-47.061684722900395,632.1670540416635,-3.479891300201416,-2.1595613956451416,1.8129558563232422,632.1620880416667
2025-10-03 13:43:28.666096,4.847114026844502,-0.41509588569402694,-8.518761706352235,632.291185041664,-7.451248408555985,-0.3218216497823596,10.068038796186448,632.291185041664,-8.985364837646484,-0.4125421142578125,-6.599176940917969,632.2862200416639,-0.7078909873962402,-3.497509241104126,0.2028561234474182,632.291185041664
