timestamp,gravity_x,gravity_y,gravity_z,gravity_time,lin_acc_x,lin_acc_y,lin_acc_z,lin_acc_time,acc_x,acc_y,acc_z,acc_time,gyro_x,gyro_y,gyro_z,gyro_time
2025-10-01 14:38:35.880721,0.39364033184945585,-0.009030598596436904,-9.802096903324127,1346.026695916662,0.8312625427544117,-0.9762205736339092,0.43412652611732483,1346.026695916662,0.6608757019042969,-1.1304492187500002,-7.3215747070312505,1346.0316619166406,-0.0462372750043869,-0.3048754036426544,0.018455836921930313,1346.026695916662
2025-10-01 14:38:36.012325,0.34132565885782246,0.00974399202503264,-9.804053966403009,1346.1558339166804,2.232122827470303,0.4932101186737418,0.21858880162239075,1346.1558339166804,0.8644523620605469,0.7969427490234375,-7.243137817382813,1346.1608009166666,0.06422872841358185,0.049881767481565475,0.01454161200672388,1346.1558339166804
2025-10-01 14:38:36.139472,0.31970985475927594,-0.004316696106106974,-9.804789546132088,1346.2849719166406,-0.04248627092689276,3.133409724533558,-0.08439754128456116,1346.2849719166406,0.36658767700195316,3.306324462890625,-11.954889678955078,1346.289938916685,0.016284607350826263,-0.07713998854160309,-0.06907159835100174,1346.2849719166406
2025-10-01 14:38:36.270405,0.35750516038388014,-0.025467931497842076,-9.803448779582977,1346.4141109166667,0.9896932893991471,2.7113325557112695,0.8306595486402512,1346.4141109166667,-0.07454498291015625,2.6737399291992188,-10.817105712890626,1346.4190769166453,-0.016471926122903824,-0.08153603971004486,0.01866995356976986,1346.4141109166667
2025-10-01 14:38:36.406991,0.3492442872002721,-0.031915473472327,-9.803729445934296,1346.5531829166575,0.07287790518254042,0.8457730662077666,-0.12662028551101684,1346.5531829166575,0.4221221923828125,0.8138575744628906,-9.930349731445313,1346.5482159166713,0.005374743603169918,0.004809137899428606,0.0007066419348120689,1346.5531829166575
2025-10-01 14:38:36.526442,0.3547691385447979,-0.025381155163049698,-9.803554029464722,1346.6723869166453,-0.02979481626302004,-0.12595415060408413,-0.16511952280998232,1346.6723869166453,0.34173934936523437,-0.13397140502929689,-9.664951629638672,1346.6773539166315,-9.112292900681496e-05,0.007932960987091064,-0.0023073041811585426,1346.6723869166453
2025-10-01 14:38:36.656585,0.35774738129228356,-0.021709777533542366,-9.803452872633935,1346.7915919166408,0.011235351786017419,-0.1257336192112416,-0.13543087005615234,1346.7915919166408,0.35221755981445313,-0.19175125122070313,-9.753567352294922,1346.7965589166852,0.0003912895917892456,0.00398198002949357,0.001782367005944252,1346.7915919166408
2025-10-01 14:38:36.793857,0.3625686298683286,-0.021213081688620152,-9.803274532556534,1346.9405979166622,0.01344943653792143,-0.16649657864123585,-0.06375687003135681,1346.9405979166622,0.3841012573242188,-0.18142272949218752,-9.728419647216798,1346.9455639166408,0.0012344149872660637,-0.00024451292119920254,-0.0008572330698370934,1346.9405979166622
2025-10-01 14:38:36.921091,0.35882860455662013,-0.020865656579844655,-9.803413111567497,1347.0697366250097,0.012399422787129879,-0.11250699813477695,0.03188369750976563,1347.0697366250097,0.37976028442382814,-0.11690689086914063,-9.820328521728516,1347.074703624996,0.0016213641501963139,-0.005224131513386965,-9.838305413722992e-05,1347.0697366250097
2025-10-01 14:38:37.059383,0.357253328114748,-0.022884588225279005,-9.803468075394631,1347.19887462497,0.027895786799490452,0.18634467808529737,0.0013998234272003173,1347.19887462497,0.38200561523437504,0.16316070556640624,-9.807604980468751,1347.2038416250143,0.00044857291504740715,0.0005692588165402412,0.0007319364231079817,1347.19887462497
2025-10-01 14:38:37.188520,0.3576044168695808,-0.021000539967790246,-9.803461058735849,1347.3379466249608,0.014072749726474286,0.05722520580980927,-0.013128168582916261,1347.3379466249608,0.37167709350585937,0.03622467041015625,-9.816586303710938,1347.3329796249745,-0.001679825596511364,-0.0009303672122769058,-0.0010055098682641983,1347.3379466249608
2025-10-01 14:38:37.314654,0.3583688306808472,-0.01890637567033991,-9.803432992100715,1347.4670856249868,0.014655424766242505,-0.14545183737762274,1.988053321838379e-05,1347.4670856249868,0.3730242919921875,-0.16435821533203127,-9.803413696289063,1347.4621186250006,0.0017305449582636356,0.00041054480243474245,-0.0002825581468641758,1347.4670856249868
2025-10-01 14:38:37.442654,0.35761845018714666,-0.020652176106814295,-9.803461058735849,1347.5962236250052,0.015555603615939618,0.04909303075633943,0.00932513952255249,1347.5962236250052,0.37317398071289065,0.02844085693359375,-9.79413299560547,1347.5912566249608,0.00086597865447402,-0.0007069628918543458,-0.0017358148470520973,1347.5962236250052
2025-10-01 14:38:37.563684,0.3570349346101284,-0.020278829103335737,-9.803478600382805,1347.7154286250006,0.010151424184441567,0.05934759434312582,0.017429965138435366,1347.7154286250006,0.36718643188476563,0.03906875610351563,-9.7860498046875,1347.7104616250144,-0.0016148765571415424,-0.0007336126873269677,-0.0005063069984316826,1347.7154286250006
2025-10-01 14:38:37.691193,0.3569279305636883,-0.020244408189319076,-9.803480939269066,1347.8346326249884,0.009509984627366066,-0.05669558511581272,0.01294339656829834,1347.8346326249884,0.3733236694335938,-0.07229965209960938,-9.81523910522461,1347.8395996249747,0.001515435054898262,0.0017711432883515954,-0.0017701033502817154,1347.8346326249884
2025-10-01 14:38:37.813831,0.3567655241489411,-0.02022554406663403,-9.803488540649415,1347.9637706250069,0.019551883153617382,0.02576402444858104,-0.004414647817611694,1347.9637706250069,0.37631744384765625,0.005538482666015625,-9.807904357910157,1347.95880462497,-0.0007155351340770721,0.0003686283016577363,0.0007052801083773375,1347.9637706250069
2025-10-01 14:38:37.960096,0.35687475744634867,-0.019645082289353015,-9.803486201763153,1348.1028423749958,0.016149498000741006,-0.002508848374709487,-0.012949243783950806,1348.1028423749958,0.3742218017578125,-0.03338058471679688,-9.798773345947266,1348.107809374982,0.0013410556130111217,0.0013180493842810392,0.00011733919382095337,1348.1028423749958
2025-10-01 14:38:38.096602,0.3570743667706847,-0.020360180775169285,-9.80347918510437,1348.2419143749867,0.017895915135741236,0.003295662046875805,-0.006521984338760376,1348.2419143749867,0.3725752258300781,-0.012873229980468751,-9.801467742919922,1348.2468813749729,-0.0012669134885072708,-0.0007052033324725926,0.00015510106459259987,1348.2419143749867
2025-10-01 14:38:38.257810,0.35711460292339325,-0.021031955047510566,-9.803473337888718,1348.4008543749806,0.01635868214070797,0.0024705605325289074,0.009043303728103639,1348.4008543749806,0.37976028442382814,-0.017663269042968752,-9.814790039062501,1348.4058213749668,0.002740263007581234,0.0002931844210252166,0.0021346474532037973,1348.4008543749806
2025-10-01 14:38:38.385541,0.3566422575339675,-0.02112691520014778,-9.803494972586632,1348.529992374999,0.019076467975974083,0.001667374656535685,0.0021751642227172854,1348.529992374999,0.36673736572265625,-0.015417938232421876,-9.804012451171875,1348.5349593749852,-0.0028057305607944727,0.0006568024400621653,0.0002669980749487877,1348.529992374999
2025-10-01 14:38:38.518393,0.3566269451379776,-0.02057461827294901,-9.80349263370037,1348.6690643749898,0.01759482007473707,-0.0006811754987575114,0.010409213304519653,1348.6690643749898,0.3742218017578125,-0.02125579833984375,-9.793085174560547,1348.6640973750036,0.0020835096947848797,-0.0008744241786189377,-0.0021040751598775387,1348.6690643749898
2025-10-01 14:38:38.646507,0.35676764376461506,-0.02067322379909456,-9.803486201763153,1348.7882693749852,0.008323036395013333,0.00645280446857214,0.007709553837776184,1348.7882693749852,0.3650907897949219,-0.014220428466796876,-9.795779571533204,1348.783302374999,0.0002771057188510895,-0.0002626172499731183,-0.0012835199013352394,1348.7882693749852
2025-10-01 14:38:38.764572,0.3572896904870868,-0.020518245175480843,-9.803471583724022,1348.9174073750037,0.019626544788479805,0.0036034174519591036,0.001852397918701172,1348.9174073750037,0.3769161987304688,-0.016914825439453125,-9.801617431640626,1348.9124403750175,-0.0009463420137763023,-0.0010585960699245334,-0.0008647195063531399,1348.9174073750037
2025-10-01 14:38:38.890578,0.35742644224315884,-0.020352647916879504,-9.80346573650837,1349.0366121666739,0.015298435762524605,0.005234084841795266,0.012925270199775697,1349.0366121666739,0.37437149047851564,-0.011825408935546875,-9.797426147460937,1349.04157916666,0.0013005100190639496,0.0007186218863353133,-3.180466592311859e-07,1349.0366121666739
2025-10-01 14:38:39.016097,0.3575450310856104,-0.020633293711580337,-9.803460474014283,1349.165750166634,0.00919233463704586,0.0005750074214302004,0.007531213760375977,1349.165750166634,0.38050872802734376,-0.02005828857421875,-9.795929260253907,1349.160783166648,0.0010713497176766396,-0.0011376591864973307,-0.0009691342711448669,1349.165750166634
2025-10-01 14:38:39.142383,0.3577325074374676,-0.02053868758957833,-9.803451703190804,1349.2948891666601,0.007956964150071145,0.0069170185737311846,-0.005498136878013611,1349.2948891666601,0.3656895446777344,-0.013621673583984376,-9.808952178955078,1349.289922166674,-0.0005984213203191757,-0.0005711938720196486,0.000542402733117342,1349.2948891666601
2025-10-01 14:38:39.272265,0.35796292427927257,-0.02062861365498975,-9.803444686532021,1349.414093166648,0.01880354918539524,0.0001212589186616242,0.00557005763053894,1349.414093166648,0.37122802734375004,-0.01526824951171875,-9.819879455566406,1349.4190601666342,-0.002039975021034479,-0.0019252734491601586,0.00011786539107561111,1349.414093166648
2025-10-01 14:38:39.395050,0.3580457720160484,-0.01945982376812026,-9.803447610139846,1349.5432311666664,0.018271744921803477,0.009280983908101916,0.0033247268199920656,1349.5432311666664,0.3779640197753906,-0.011376342773437501,-9.796378326416017,1349.5481981666526,-6.22565858066082e-05,-0.0014378768391907215,0.0002239239402115345,1349.5432311666664
2025-10-01 14:38:39.527799,0.35797549579292537,-0.019205974666401743,-9.803450533747673,1349.6624361666618,0.0150488692894578,-0.0004032500297762454,-0.006402701139450073,1349.6624361666618,0.37212615966796875,-0.0047900390625,-9.808952178955078,1349.667403166648,0.0009778663516044617,0.0006384602747857571,0.00036907754838466644,1349.6624361666618
2025-10-01 14:38:39.653488,0.3584144389629364,-0.018762465643230825,-9.803432407379152,1349.8015081666526,0.013112965822219848,0.0021470165031496438,0.006006259918212891,1349.8015081666526,0.3715274047851563,-0.016615447998046876,-9.797426147460937,1349.7965411666664,0.0008348911069333553,0.00010277761612087488,0.0006759921088814735,1349.8015081666526
2025-10-01 14:38:39.778651,0.3586511415615678,-0.018764661775203424,-9.803422467112542,1349.930646166671,0.017217199578881265,-0.0023414489859715105,0.006745932698249817,1349.930646166671,0.3758683776855469,-0.021106109619140626,-9.796677703857423,1349.9256801666343,0.0029766173101961613,0.0013020304031670094,0.0012462276499718428,1349.930646166671
2025-10-01 14:38:39.908725,0.35878591988235714,-0.018460472943261266,-9.80342012822628,1350.0498514999636,0.01573525931686163,0.0004978253168519586,0.004346820116043091,1350.0498514999636,0.37242553710937504,-0.022602996826171878,-9.8052099609375,1350.054818500008,-0.0021798647940158844,-0.0011563381412997842,-0.0005239229649305344,1350.0498514999636
2025-10-01 14:38:40.060904,0.3585865663737059,-0.01798550544306636,-9.803426560163498,1350.198857499985,0.014587377794086934,0.0006216126994695515,0.007498469352722168,1350.198857499985,0.37317398071289065,-0.0173638916015625,-9.795929260253907,1350.1938904999988,0.0037333588115870953,-0.0014261044561862946,0.000440127681940794,1350.198857499985
2025-10-01 14:38:40.186868,0.3585923039540649,-0.018460237684194,-9.803428314328194,1350.3379294999759,0.014731402024626732,0.003042301735840738,-0.0029809105396270755,1350.3379294999759,0.3733236694335938,-0.015417938232421876,-9.806407470703126,1350.3329624999897,0.00072452612221241,0.0015837263781577349,-0.0012085535563528538,1350.3379294999759
2025-10-01 14:38:40.331968,0.3580345892161131,-0.01792265358497389,-9.803448194861412,1350.4770014999667,0.01678593087941408,-0.0015368778223637492,0.008417066931724549,1350.4770014999667,0.3754193115234375,-0.01916015625,-9.798174591064454,1350.4819685000111,0.0005684029310941696,-0.0010376799618825316,-0.0012116250582039356,1350.4770014999667
2025-10-01 14:38:40.459780,0.35837727259844543,-0.018173445460852238,-9.80343357682228,1350.6061394999851,0.008060679137706757,-0.006525188887026161,0.008403618335723877,1350.6061394999851,0.3728746032714844,-0.012424163818359375,-9.796528015136719,1350.6111064999714,-0.0009067682549357414,-0.00016288220649585128,0.0014245100319385529,1350.6061394999851
2025-10-01 14:38:40.591597,0.3584029638022185,-0.018024799417471513,-9.803431822657586,1350.7352785000112,0.012974679172039033,0.00021184165379963817,-0.0011770445108413698,1350.7352785000112,0.37137771606445313,-0.017812957763671877,-9.804611206054688,1350.7303114999668,0.0003602011129260063,-2.063770079985261e-05,-0.0016465233638882637,1350.7352785000112
2025-10-01 14:38:40.712893,0.35887158159166577,-0.018062587048625574,-9.803417204618455,1350.8644164999714,0.014901154004037381,-0.002295081251068041,-0.005235596895217896,1350.8644164999714,0.3737727355957031,-0.020357666015625,-9.808652801513672,1350.8594494999852,-0.00027325982227921486,-0.0003785567241720855,0.0029725232161581516,1350.8644164999714
2025-10-01 14:38:40.841298,0.35957233384251597,-0.018081663589691745,-9.803393815755845,1350.9836214999668,0.02063708983361721,0.004759361736942083,0.00267217755317688,1350.9836214999668,0.37437149047851564,-0.015567626953125,-9.807604980468751,1350.9885875000036,-0.0003702249377965927,-0.0029935610946267843,0.0013344346079975367,1350.9836214999668
2025-10-01 14:38:40.969944,0.359763866700232,-0.017905380316078665,-9.803383875489235,1351.1127594999853,0.013709454908967019,9.242712054401637e-05,-0.0001789247989654541,1351.1127594999853,0.3754193115234375,-0.013172607421875001,-9.806856536865235,1351.1177264999715,7.623480632901192e-05,-0.0010625130962580442,0.0005217785947024822,1351.1127594999853
2025-10-01 14:38:41.106907,0.35964447386562826,-0.017703096347395333,-9.803388553261758,1351.251831499976,0.01637359254062176,0.007673952060285956,0.0046157920360565185,1351.251831499976,0.37601806640625,-0.010029144287109375,-9.798773345947266,1351.24686449999,0.0001253969967365265,-0.00022470069234259427,-0.00018530432134866714,1351.251831499976
2025-10-01 14:38:41.226952,0.35990737929940225,-0.01758574090199545,-9.80337978243828,1351.3710364999715,0.012667846530675889,0.0023174913902767004,-3.391385078430176e-05,1351.3710364999715,0.36479141235351564,-0.017513580322265625,-9.804461517333985,1351.3760025000083,-0.0007872460409998894,-0.0009412012877874076,-0.0019206544384360313,1351.3710364999715
2025-10-01 14:38:41.374746,0.35991494413465264,-0.017749432105338202,-9.803378028273583,1351.5200414999854,0.016851492784917356,-0.00021321323700249195,-0.004824537634849548,1351.5200414999854,0.37018020629882814,-0.025596771240234375,-9.797725524902344,1351.5250084999716,0.0007101269438862801,-0.0022554383613169193,-7.875915616750717e-05,1351.5200414999854
2025-10-01 14:38:41.499503,0.3596107061952353,-0.017939337564166637,-9.803389137983322,1351.6491805000114,0.00533035833388567,0.001024517834885046,0.006113848686218262,1351.6491805000114,0.3649411010742188,-0.016914825439453125,-9.797276458740235,1351.644213499967,5.1110051572322845e-05,-0.000982085824944079,-0.00010403664782643318,1351.6491805000114
2025-10-01 14:38:41.645127,0.35969465028494596,-0.01827937827911228,-9.803385629653931,1351.7882525000023,0.012880539000034334,-0.008215524143306539,0.004163802266120911,1351.7882525000023,0.3725752258300781,-0.026494903564453127,-9.799222412109376,1351.783285500016,0.0029427511617541313,-1.5344528947025537e-05,0.0004800758324563503,1351.7882525000023
2025-10-01 14:38:41.774809,0.35957321092486383,-0.01807484678691253,-9.803392061591149,1351.9273244999931,0.022731818296015265,0.002507219833787531,-0.0031656825542449953,1351.9273244999931,0.3823049926757813,-0.015567626953125,-9.806557159423829,1351.922357500007,0.0010316446423530579,-0.001749304123222828,0.000993137713521719,1351.9273244999931
2025-10-01 14:38:41.895132,0.36021702591329813,-0.018447353253141046,-9.803368088006973,1352.0465280416538,0.013555746227502824,-0.0032575089647434653,-0.015015649795532228,1352.0465280416538,0.3737727355957031,-0.021704864501953126,-9.818382568359375,1352.0415620416752,0.002249722369015217,-0.00019268441246822476,-0.0011928756721317768,1352.0465280416538
2025-10-01 14:38:42.017859,0.36045639630407095,-0.017939345558406785,-9.80335990190506,1352.1657330416492,0.015412017926573754,0.0004257595259696245,0.007878538370132446,1352.1657330416492,0.3758683776855469,-0.017513580322265625,-9.795480194091798,1352.160766041663,-0.0027456614188849926,-0.002358228201046586,-0.0023075612261891365,1352.1657330416492
2025-10-01 14:38:42.152315,0.3604513530805707,-0.017903711803955957,-9.803359317183496,1352.2948710416676,0.015267299339175226,0.007126123913330958,-5.437910556793213e-05,1352.2948710416676,0.3830534362792969,-0.011376342773437501,-9.794881439208984,1352.2998380416539,0.0002620765008032322,-8.358195191249251e-05,0.0012385714799165726,1352.2948710416676
2025-10-01 14:38:42.297687,0.3603633159399033,-0.018116835962282495,-9.803363410234452,1352.443877041631,0.017301362939178944,-0.003438338676933199,-0.008284335136413575,1352.443877041631,0.37856277465820315,-0.018262023925781252,-9.807604980468751,1352.4488440416753,0.0013634315691888332,0.00067503860918805,0.00023205066099762917,1352.443877041631
2025-10-01 14:38:42.439965,0.3599595291540027,-0.018124315144959838,-9.803376274108887,1352.58294904168,0.01860320895910263,1.1983365984633565e-05,0.0031066256761550907,1352.58294904168,0.3695814514160156,-0.021106109619140626,-9.79892303466797,1352.5879160416662,0.0007541254162788391,-0.003330265637487173,-0.0002575702965259552,1352.58294904168
2025-10-01 14:38:42.571196,0.3606799792125821,-0.01851441807579249,-9.803349961638451,1352.7120880416478,0.017882795445621016,-0.0003463584487326443,-0.0011109709739685059,1352.7120880416478,0.38470001220703126,-0.014220428466796876,-9.817334747314453,1352.717055041634,0.0005889893509447575,-0.0009788518073037267,-0.0005759666673839092,1352.7120880416478
2025-10-01 14:38:42.708095,0.36097237654030323,-0.01736435983562842,-9.803339436650276,1352.8511600416387,0.015045653320848942,-0.0029932993277907373,-0.013095424175262452,1352.8511600416387,0.37601806640625,-0.020357666015625,-9.816436614990234,1352.8461930416524,-0.0005234275013208389,0.0006073410040698946,0.00023015029728412628,1352.8511600416387
2025-10-01 14:38:42.836005,0.3611903315037489,-0.016791096300585198,-9.803337097764016,1352.980298041657,0.01931854270398617,-0.0017703130608424545,-0.0023248529434204105,1352.980298041657,0.37212615966796875,-0.00808319091796875,-9.788744201660156,1352.9852650416433,0.0005062129348516464,0.0014021184761077166,-0.001160609070211649,1352.980298041657
2025-10-01 14:38:42.963690,0.36123305272310974,-0.016840576078975576,-9.803331835269928,1353.1094356666435,0.015533420741558076,-0.0036667729471810163,0.0087503582239151,1353.1094356666435,0.3830534362792969,-0.012274475097656251,-9.80131805419922,1353.1144026666298,0.0004410133697092533,0.0005269687972031534,0.0003104512579739094,1353.1094356666435
2025-10-01 14:38:43.087508,0.3610268652811647,-0.01609944606316276,-9.803341190814972,1353.2385746666696,0.014392446242272854,0.0023280871845781804,0.010256016254425048,1353.2385746666696,0.3754193115234375,-0.013771362304687501,-9.793085174560547,1353.2336076666834,0.00048425793647766113,-0.0034076462034136057,0.0005696602165699005,1353.2385746666696
2025-10-01 14:38:43.220087,0.3612048033624888,-0.016309065318200738,-9.80333534359932,1353.3677126666298,0.012418280057609083,0.002088633425300941,-0.0041211175918579104,1353.3677126666298,0.37362304687500003,-0.014220428466796876,-9.807455291748047,1353.3627456666436,0.0007482361979782581,-0.0008867146680131555,-2.596108242869377e-05,1353.3677126666298
2025-10-01 14:38:43.342759,0.36094763550907377,-0.015818563867360354,-9.803346453309059,1353.4869176666834,0.02360276106745005,-0.00813163372920826,-0.006804989576339722,1353.4869176666834,0.3826043701171875,-0.014819183349609376,-9.800569610595703,1353.4918846666696,0.003148502204567194,-0.001064511016011238,0.00016387971118092537,1353.4869176666834
2025-10-01 14:38:43.469359,0.3607296805456281,-0.016512516445945948,-9.803351715803148,1353.6061216666712,0.006307026073336602,-0.005342032208573074,0.005027436017990113,1353.6061216666712,0.37856277465820315,-0.0143701171875,-9.79997085571289,1353.6110886666575,-0.0006033522076904774,-0.002042873064056039,0.002773646265268326,1353.6061216666712
2025-10-01 14:38:43.615569,0.36075409267097713,-0.0168056560959667,-9.803349376916886,1353.7551276666345,0.024394949153065684,0.003633049816126004,0.003977860808372498,1353.7551276666345,0.3668870544433594,-0.013172607421875001,-9.801617431640626,1353.760094666679,0.000812816433608532,-0.001472456380724907,-0.0005326513200998306,1353.7551276666345
2025-10-01 14:38:43.755103,0.3601251880824566,-0.01666561984922737,-9.803371596336365,1353.904133666656,0.011851209774613382,0.0018464444938581439,0.0007080978155136108,1353.904133666656,0.37197647094726566,-0.014819183349609376,-9.802665252685548,1353.8991666666698,-0.0009947116486728191,-0.003831659909337759,-0.0010562450625002384,1353.904133666656
2025-10-01 14:38:43.907261,0.3600454832240939,-0.01559381494182162,-9.803378612995148,1354.0432068749797,0.001452777273952961,0.0006249405874405057,0.00580277681350708,1354.0432068749797,0.37137771606445313,-0.013921051025390626,-9.802665252685548,1354.0481738749659,0.0009193434379994869,-0.0006300945533439517,-0.0016351542435586452,1354.0432068749797
2025-10-01 14:38:44.034734,0.36003872238099577,-0.015485303410096095,-9.803378028273583,1354.1822788749705,0.014033354111015797,-0.002177962206769735,-0.002130725383758545,1354.1822788749705,0.37272491455078127,-0.017513580322265625,-9.80326400756836,1354.1773118749843,-0.0001904517412185669,-0.0011951383203268051,-0.0012194951996207237,1354.1822788749705
2025-10-01 14:38:44.154907,0.3602335808426142,-0.015581212593242527,-9.80336984217167,1354.301483874966,0.012940326780080795,0.0010614078270737082,-0.011717820167541505,1354.301483874966,0.37212615966796875,-0.018860778808593753,-9.811047821044923,1354.3064508750103,-0.001633577048778534,-0.00031151046277955174,0.0003009038046002388,1354.301483874966
2025-10-01 14:38:44.272425,0.3599646820127964,-0.015452214108081536,-9.803382706046104,1354.4206888749613,0.011712448038160801,0.005872131414944306,-0.0019775283336639403,1354.4206888749613,0.37212615966796875,-0.01107696533203125,-9.808353424072266,1354.4256548749981,0.00012810109183192253,-0.001140910666435957,0.0017613766249269247,1354.4206888749613
2025-10-01 14:38:44.391316,0.36030235871672633,-0.01595019930973649,-9.803367503285408,1354.5398928750074,0.010177188478410244,-0.0038087072549387816,0.0023494112491607667,1354.5398928750074,0.3733236694335938,-0.019309844970703125,-9.814041595458985,1354.5448598749936,-0.0003860294818878174,-0.0009982874616980553,-0.000260302796959877,1354.5398928750074
2025-10-01 14:38:44.514890,0.36044236298650506,-0.016305728293955327,-9.803362825512886,1354.6590978750028,0.021263911351561547,-0.0009084780130069703,-0.005889315605163575,1354.6590978750028,0.3695814514160156,-0.011675720214843751,-9.815538482666016,1354.664064874989,-0.0013528564013540745,0.00045309861889109015,0.0012871881481260061,1354.6590978750028
2025-10-01 14:38:44.643999,0.36072397951036694,-0.016640961044467988,-9.803350546360017,1354.788235874963,0.017090314999222755,-0.0016210617392789573,-0.0015588676929473879,1354.788235874963,0.3769161987304688,-0.0149688720703125,-9.812694396972656,1354.7932028750074,0.0014001275412738323,-0.000506886572111398,-0.0008697109296917915,1354.788235874963
2025-10-01 14:38:44.773113,0.36119237802922727,-0.01683224722277373,-9.803333589434624,1354.917374874989,0.006592808738350869,-0.0009807105408981443,0.00785398006439209,1354.917374874989,0.3802093505859375,-0.013172607421875001,-9.80236587524414,1354.9223408749676,0.0022727823816239834,0.00016774435061961412,-0.0011858446523547173,1354.917374874989
2025-10-01 14:38:44.903856,0.3615310414507985,-0.0167661302885972,-9.803322479724885,1355.0564461249742,0.008499512672424317,-0.002094647377962247,0.006044851541519165,1355.0564461249742,0.370030517578125,-0.018860778808593753,-9.797276458740235,1355.051479124988,0.001689972821623087,-0.0020646993070840836,-0.0005254466086626053,1355.0564461249742
2025-10-01 14:38:45.026557,0.3617420528456569,-0.01697722048382275,-9.803316632509231,1355.175650124962,0.008587988354265691,0.0066486896190326664,0.0004981827735900879,1355.175650124962,0.3757186889648438,-0.014819183349609376,-9.807604980468751,1355.1806171250064,-0.0011268830858170986,0.0002965411404147744,-9.87071543931961e-05,1355.175650124962
2025-10-01 14:38:45.144449,0.36194115053862336,-0.01599267042358406,-9.803307276964189,1355.2948551250156,0.00808933049440384,0.003718196467962116,0.011569885611534119,1355.2948551250156,0.370030517578125,-0.012274475097656251,-9.79173797607422,1355.2898881249712,0.00032704416662454605,0.00048144557513296604,0.0008866495918482542,1355.2948551250156
2025-10-01 14:38:45.272058,0.36272113256156446,-0.015843155292095616,-9.803281549215317,1355.414060125011,0.01000385507941246,-0.006610156239476055,-0.0008829295635223389,1355.414060125011,0.384400634765625,-0.019309844970703125,-9.808203735351563,1355.4190261249896,-0.0010202652774751186,-0.0015273697208613157,0.0016409149393439293,1355.414060125011
2025-10-01 14:38:45.395319,0.36285236600786447,-0.015561523921787739,-9.803274532556534,1355.5431981249712,0.014512862339615823,-0.007789915365865455,0.0013583081960678101,1355.5431981249712,0.37736526489257816,-0.023351440429687502,-9.801916809082032,1355.538231124985,0.0007862858474254608,-0.0014580929419025779,-0.0018734750337898731,1355.5431981249712
2025-10-01 14:38:45.529202,0.3634164395928383,-0.015751933017745613,-9.803253482580185,1355.6723361249897,0.002871859967708588,-0.004006975830998272,0.003731693029403687,1355.6723361249897,0.36628829956054687,-0.0197589111328125,-9.799521789550782,1355.6673691250035,0.0009808908216655254,-2.765352837741375e-05,0.0014837333001196384,1355.6723361249897
2025-10-01 14:38:45.652240,0.3634647887572646,-0.016293908238876612,-9.803248804807664,1355.8014751250157,0.001326550506055355,0.0020734831981826574,-0.0003122413158416748,1355.8014751250157,0.36479141235351564,-0.014220428466796876,-9.803563385009767,1355.7965081249713,1.2701377272605896e-05,0.002939837519079447,-0.0009366273880004883,1355.8014751250157
2025-10-01 14:38:45.779910,0.36358381614089014,-0.015420016734860839,-9.803247635364533,1355.930613124976,0.013182657323777677,-0.00538671087473631,0.0034270530939102175,1355.930613124976,0.37676651000976563,-0.020806732177734377,-9.799821166992189,1355.9256461249897,-0.002172594191506505,0.0012398946564644575,0.001814595190808177,1355.930613124976
2025-10-01 14:38:45.909694,0.3638293626531959,-0.01589869356248528,-9.803238864541054,1356.0597527499776,0.007847767397761345,-0.00685399312642403,-2.5727748870849612e-05,1356.0597527499776,0.37167709350585937,-0.022752685546875002,-9.80326400756836,1356.0547857499914,-0.00108633516356349,-0.000533099751919508,-0.0007114643231034279,1356.0597527499776
2025-10-01 14:38:46.036548,0.363848877735436,-0.014634768791729586,-9.803237695097923,1356.1789567499654,0.013366625346243383,0.0017615388112608343,-0.0006233131885528565,1356.1789567499654,0.38934036254882814,-0.014519805908203126,-9.792486419677735,1356.1839237500099,-0.0010995669290423393,0.0020826857071369886,-0.0007055653259158134,1356.1789567499654
2025-10-01 14:38:46.164510,0.36443853288888933,-0.014855505750747398,-9.803218984007836,1356.3080957499915,0.009483891427516938,-0.007747491075424478,-0.0027411746978759765,1356.3080957499915,0.3674858093261719,-0.013771362304687501,-9.805060272216798,1356.31306174997,0.0021393601782619953,0.0006735335919074714,0.002829396165907383,1356.3080957499915
2025-10-01 14:38:46.304070,0.36545770257711413,-0.015397049282910302,-9.803175714612008,1356.4471677499823,0.013104998990893365,0.00177538255113177,-0.0074201166629791265,1356.4471677499823,0.37856277465820315,-0.013621673583984376,-9.810598754882813,1356.4422007499961,0.000405152328312397,-0.00010508039849810302,0.0005613588728010654,1356.4471677499823
2025-10-01 14:38:46.424868,0.3654094630479813,-0.01519600784755312,-9.803183315992356,1356.5763057500008,0.01375213958323002,-0.006808237521909177,-0.004274314641952515,1356.5763057500008,0.3791615295410156,-0.022004241943359377,-9.807455291748047,1356.5713387500145,-0.0011573908850550652,-0.0003388555778656155,0.0009578228928148746,1356.5763057500008
2025-10-01 14:38:46.547793,0.36624188728630547,-0.015605280966265128,-9.803146478533746,1356.6955107499962,0.00423765990883112,3.7655155174434186e-05,-0.009246202111244202,1356.6955107499962,0.3704795837402344,-0.015567626953125,-9.81239501953125,1356.69054375001,0.000988891813904047,0.0009797830134630203,0.0008364473469555378,1356.6955107499962
2025-10-01 14:38:46.671118,0.3666229795664549,-0.015372734230477364,-9.803136538267136,1356.8246487500146,0.011041699312627317,-0.006332130271475762,0.010648949146270752,1356.8246487500146,0.3776646423339844,-0.021704864501953126,-9.792486419677735,1356.8196817499702,-0.0017171632498502731,0.0011619930155575275,-0.0010964488610625267,1356.8246487500146
2025-10-01 14:38:46.799204,0.3671373152732849,-0.01506481437245384,-9.803116073012353,1356.94385375001,0.00977884691208601,-0.006939424144802616,0.005240859389305115,1356.94385375001,0.38634658813476563,-0.013921051025390626,-9.79278579711914,1356.9488207499962,0.0006498084403574467,-0.0006631123833358288,0.001210684422403574,1356.94385375001
2025-10-01 14:38:46.921519,0.3669485963881016,-0.01407672057976015,-9.803124843835832,1357.0729917499702,0.011015423387289048,-0.0077778315008617946,0.0015074121952056885,1357.0729917499702,0.3779640197753906,-0.02185455322265625,-9.801617431640626,1357.068024749984,-0.001837317831814289,-0.00021344661945477128,-0.0007432647980749607,1357.0729917499702
2025-10-01 14:38:47.040233,0.3669389119371772,-0.01363910559564829,-9.803123674392701,1357.1921967499657,0.002642466388642788,-0.0028266548237297685,0.005550177097320557,1357.1921967499657,0.3695814514160156,-0.016465759277343752,-9.797575836181641,1357.1872297499795,-0.00017168419435620308,-0.0008726718369871378,-0.0010581938549876213,1357.1921967499657
2025-10-01 14:38:47.165068,0.3671841660887003,-0.014232006410602481,-9.803117827177049,1357.3114007500117,0.00015202760696411132,-0.0035809547791723164,0.0005999243259429932,1357.3114007500117,0.3650907897949219,-0.00868194580078125,-9.802964630126954,1357.3163677499979,-0.000180794857442379,0.0029278278816491365,-0.0008822185918688774,1357.3114007500117
2025-10-01 14:38:47.294286,0.36726368822157385,-0.013705135735217483,-9.803110810518266,1357.4405397499795,0.014891506098210812,-0.008149409493198619,-0.0017968493700027466,1357.4405397499795,0.38215530395507813,-0.02185455322265625,-9.804910583496094,1357.4355727499933,-0.002934503136202693,-0.0004243429284542799,0.0003927219659090042,1357.4405397499795
2025-10-01 14:38:47.426833,0.3673474495857954,-0.013580776193412022,-9.803111979961395,1357.569677749998,0.008221587203443051,-0.0009390297147911042,-0.008535765409469605,1357.569677749998,0.37556900024414064,-0.014519805908203126,-9.811646575927735,1357.5647107500117,-0.0008851815946400166,-0.001929476740770042,0.002897992730140686,1357.569677749998
2025-10-01 14:38:47.555487,0.3677613228186965,-0.012719554417999462,-9.803093853592873,1357.6988167499658,0.00870573665946722,-0.012128772076684982,0.005520356297492981,1357.6988167499658,0.3764671325683594,-0.02484832763671875,-9.797575836181641,1357.6938497499796,-0.001310284249484539,0.0011756636667996645,1.6018282622098923e-05,1357.6988167499658
2025-10-01 14:38:47.687889,0.367831306681037,-0.012742396246176214,-9.803093268871308,1357.8279547499842,0.004294852986931801,-0.0023761668289080263,-0.010050194263458252,1357.8279547499842,0.37556900024414064,-0.012424163818359375,-9.799671478271485,1357.8329217499704,-0.0020073908381164074,0.0019725703168660402,0.00037602195516228676,1357.8279547499842
2025-10-01 14:38:47.814002,0.3677628942579031,-0.012997401086613536,-9.803097361922264,1357.9570927500026,0.0003217430412769318,0.0010223022883292289,0.0017775535583496095,1357.9570927500026,0.3733236694335938,-0.022004241943359377,-9.796228637695313,1357.9620597499888,0.0007724026218056679,0.0019199959933757782,-0.0009535709396004677,1357.9570927500026
2025-10-01 14:38:47.937312,0.3682020201534033,-0.012805034543853254,-9.803078066110611,1358.0862317499705,0.007366943545639515,-0.005756370249437168,0.0007133603096008301,1358.0862317499705,0.37556900024414064,-0.0185614013671875,-9.80236587524414,1358.0812647499843,4.660477861762047e-05,-0.0015833231154829264,0.0014450578019022942,1358.0862317499705
2025-10-01 14:38:48.069754,0.3688451773300767,-0.01311510827858001,-9.803056431412697,1358.215369749989,0.0068735481798648836,0.0006909410341177136,0.0057782185077667235,1358.215369749989,0.3680845642089844,-0.02155517578125,-9.812095642089844,1358.220336749975,-0.0005250885151326656,0.0013615012867376208,-0.0020847604610025883,1358.215369749989
2025-10-01 14:38:48.203531,0.3691554452106357,-0.01292787632206455,-9.803045906424522,1358.344508750015,0.0035695424303412437,-0.007130411110119895,0.00037889957427978516,1358.344508750015,0.3728746032714844,-0.01526824951171875,-9.793234863281251,1358.3494747499935,-0.00042110634967684746,0.0031024999916553497,0.0007621152326464653,1358.344508750015
2025-10-01 14:38:48.341084,0.36901200570166115,-0.013328764624893666,-9.803048245310784,1358.4835807500058,0.002365710362792015,-0.0026879307744093243,0.007718324661254883,1358.4835807500058,0.3746708679199219,-0.017214202880859376,-9.803413696289063,1358.488547749992,0.0005978611297905445,0.000935801537707448,0.00236164266243577,1358.4835807500058
2025-10-01 14:38:48.477388,0.36910928875207905,-0.013255418613553048,-9.803045321702959,1358.6226527499966,0.0072081550955772405,0.002777204738231376,-0.008601254224777222,1358.6226527499966,0.37616775512695316,-0.0173638916015625,-9.811047821044923,1358.6276197499828,-0.0010841628536581993,0.00353514077141881,0.0006142552010715008,1358.6226527499966
2025-10-01 14:38:48.595185,0.36968834582716226,-0.01361062782816589,-9.803023102283479,1358.7418567499844,0.0010906153544783593,0.0041802349977660925,-0.0011390376091003419,1358.7418567499844,0.3826043701171875,-0.023800506591796878,-9.806856536865235,1358.7468237499706,0.0018562497571110725,0.00010103808017447591,0.0005097668617963791,1358.7418567499844
2025-10-01 14:38:48.725302,0.3696804155409336,-0.013171182163059712,-9.803024271726608,1358.8709957500105,0.008732706941664219,-0.0006001858517993242,-0.01775448560714722,1358.8709957500105,0.37676651000976563,-0.01916015625,-9.797126770019531,1358.8759627499967,0.0004939897917211056,0.0007571059395559132,-0.0008994806557893753,1358.8709957500105
2025-10-01 14:38:48.886422,0.369299579076469,-0.012911250586621464,-9.803035381436349,1359.0299347499968,0.005371142663061619,-0.001309171027969569,-0.01369768738746643,1359.0299347499968,0.38125717163085937,-0.02185455322265625,-9.80565902709961,1359.034901749983,0.0019180364906787872,-0.00028249097522348166,-0.00031766435131430626,1359.0299347499968
2025-10-01 14:38:49.011063,0.36969810336828235,-0.012750865572597832,-9.803024271726608,1359.1590737499646,0.008415641672909261,-0.009852130111539736,0.0002081608772277832,1359.1590737499646,0.37811370849609377,-0.022602996826171878,-9.80281494140625,1359.1541067499784,-0.00031809834763407707,-0.0007846768130548298,-0.0014964076690375805,1359.1590737499646
2025-10-01 14:38:49.173940,0.37027076505124573,-0.011662236215779559,-9.803002052307129,1359.288211749983,0.0003584708645939827,-0.002258811383508146,-0.004602343440055848,1359.288211749983,0.3706292724609375,-0.013921051025390626,-9.807604980468751,1359.2832447499968,-0.000798138789832592,-0.0008021353278309107,-0.0008081570267677307,1359.288211749983
2025-10-01 14:38:49.385081,0.3707075886055827,-0.011471088223624975,-9.802985680103303,1359.5266217499739,0.002616044282913208,-0.0006536958692595363,-0.0041696494817733765,1359.5266217499739,0.3752696228027344,-0.0143701171875,-9.79173797607422,1359.5315877500107,-0.0010197674855589867,0.00039985624607652426,-0.0007668714970350266,1359.5266217499739
2025-10-01 14:38:49.535727,0.37089641712605953,-0.011382210545707495,-9.80297749400139,1359.6756267499877,0.012156946063041688,-0.0037363502453081313,-0.008517639040946962,1359.6756267499877,0.370030517578125,-0.024548950195312502,-9.80131805419922,1359.680593749974,0.0005606375634670258,0.00010151817696169019,-0.0017019067890942097,1359.6756267499877
2025-10-01 14:38:49.665648,0.37121234949678183,-0.011444356626598165,-9.80296872317791,1359.8146997499862,0.001961667761206627,-0.003225141428411007,0.013625181913375856,1359.8146997499862,0.37317398071289065,-0.01466949462890625,-9.789342956542969,1359.80973275,-0.0015449183993041515,-0.0027820332907140255,-0.0005683409981429577,1359.8146997499862
2025-10-01 14:38:49.816157,0.3712108146026731,-0.011670649582520128,-9.802969892621041,1359.96370475,0.0001670476421713829,-0.008088263834360987,0.0014992260932922363,1359.96370475,0.37137771606445313,-0.0197589111328125,-9.801467742919922,1359.9587387499632,0.0003954656422138214,4.44663455709815e-05,0.0011049441527575254,1359.96370475
2025-10-01 14:38:49.950466,0.37089521113783125,-0.012171286587836222,-9.80298100233078,1360.1027763750171,-0.0017627527937293054,0.0009446291089989246,0.008845667839050293,1360.1027763750171,0.3691323852539063,-0.011226654052734375,-9.79413299560547,1360.0978103749803,-0.0014888276346027851,-0.0004888371331617236,0.0026910966262221336,1360.1027763750171
2025-10-01 14:38:50.085906,0.3709973546862602,-0.011524305880302564,-9.802976324558259,1360.231915374985,0.00397292722016573,-0.007935228953137995,-0.0032826268672943117,1360.231915374985,0.374820556640625,-0.0149688720703125,-9.806257781982422,1360.2368823749712,-8.966401219367981e-05,-0.000731899228412658,0.0003614816814661026,1360.231915374985
2025-10-01 14:38:50.221262,0.37113995365798474,-0.011467392600607128,-9.802971062064172,1360.3709873749758,0.009368774369359017,-0.003950545631814748,0.005394641160964966,1360.3709873749758,0.38050872802734376,-0.015417938232421876,-9.797575836181641,1360.3660203749896,0.001232067123055458,-0.001057661371305585,-0.0014259833842515945,1360.3709873749758
2025-10-01 14:38:50.366219,0.3707732966914773,-0.01075376162887551,-9.802984510660172,1360.5100593749667,0.0018018925935029985,-0.013346123546361924,0.01319307267665863,1360.5100593749667,0.37751495361328125,-0.019010467529296877,-9.805060272216798,1360.515026375011,-0.0010214382782578468,-0.0031681102700531483,-0.0013144230470061302,1360.5100593749667
2025-10-01 14:38:50.561502,0.3698059844970703,-0.011442720091436058,-9.803022517561914,1360.6590653749881,0.00426616508513689,-0.007418062143260614,0.0076902580261230475,1360.6590653749881,0.3776646423339844,-0.020207977294921877,-9.792037353515626,1360.6640323749743,-0.0020336369052529335,2.8289505280554295e-05,-0.0019176607020199299,1360.6590653749881
2025-10-01 14:38:50.758033,0.36960977386683225,-0.012942840397590772,-9.803027780056,1360.877607374976,-0.0025729941576719284,0.214124470744282,-0.014308136701583863,1360.877607374976,0.36703674316406254,0.20118164062500002,-9.817334747314453,1360.8726403749897,3.125052899122238e-06,0.001971608027815819,-0.0011186841875314713,1360.877607374976
2025-10-01 14:38:50.914487,0.36984223723411563,-0.01032524980022572,-9.803018424510956,1361.0663482499658,0.005876378640532494,-0.03488074042601511,-0.006679859161376953,1361.0663482499658,0.3757186889648438,-0.045205993652343755,-9.809700622558594,1361.0613812499796,-0.0017245011404156685,0.001349443569779396,0.0011669688392430544,1361.0663482499658
2025-10-01 14:38:51.045397,0.37085526734590535,-0.009748435680521653,-9.80297983288765,1361.1954862499842,0.004563934542238713,-0.2312503989413381,0.016483885645866395,1361.1954862499842,0.3754193115234375,-0.24099884033203126,-9.78649887084961,1361.190519249998,0.0005559558048844337,-0.0038252314552664757,-0.001390127930790186,1361.1954862499842
2025-10-01 14:38:51.181880,0.37022672820836305,-0.011003221892751753,-9.803005560636521,1361.334558249975,0.006839159242808819,0.17820551835000517,-0.008940392732620239,1361.334558249975,0.3770658874511719,0.16720230102539063,-9.811945953369142,1361.3295912499889,-0.00028284965083003044,-0.0002530618221499026,-0.0013449881225824356,1361.334558249975
2025-10-01 14:38:51.324349,0.37029806423932315,-0.009508081427193248,-9.803002637028694,1361.473630249966,-0.002063884399831295,-0.08225110150873662,0.007373923659324646,1361.473630249966,0.36823425292968753,-0.09175918579101563,-9.7956298828125,1361.4686642499873,0.00010696426033973694,0.0008678709273226559,-0.0010667843744158745,1361.473630249966
2025-10-01 14:38:51.461171,0.37037860963493585,-0.009559075543074868,-9.803002052307129,1361.6127032499644,0.002496030181646347,-0.04028727473225445,-0.014333864450454713,1361.6127032499644,0.3728746032714844,-0.049846343994140625,-9.817334747314453,1361.6077362499782,-0.0014268876984715462,-0.0003621658543124795,5.924748256802559e-05,1361.6127032499644
2025-10-01 14:38:51.599732,0.3701549536362291,-0.009391933112055995,-9.803010238409042,1361.7517752500135,0.004815291725099087,-0.0060260011232458055,0.006631911993026734,1361.7517752500135,0.37497024536132817,-0.015417938232421876,-9.796378326416017,1361.746808249969,0.000919148325920105,0.0008481083204969764,0.0010583812836557627,1361.7517752500135
2025-10-01 14:38:51.780791,0.3701103320717812,-0.009072497551096603,-9.803011407852173,1361.8908472500043,0.010847462117671966,-0.005297617352334783,0.0031902408599853516,1361.8908472500043,0.38095779418945314,-0.0143701171875,-9.799821166992189,1361.885880250018,-0.0007716231048107147,-0.0011230942327529192,0.0007491784635931253,1361.8908472500043
2025-10-01 14:38:51.931620,0.37020092736929655,-0.008641972886980511,-9.803006730079652,1362.0795879999641,0.006116406843066216,-0.02369078907184303,0.007079223990440369,1362.0795879999641,0.37631744384765625,-0.032332763671875,-9.795929260253907,1362.074620999978,-0.0013795713894069195,-0.0008891361067071557,-0.001521195750683546,1362.0795879999641
2025-10-01 14:38:52.128802,0.3708557058870793,-0.008726991630974226,-9.802983925938607,1362.278262000007,0.006359833739697934,-0.012528806137852372,0.006904976963996888,1362.278262000007,0.377215576171875,-0.02125579833984375,-9.79607894897461,1362.2732949999627,0.0002144044265151024,0.0014869647566229105,-0.00014244858175516129,1362.278262000007
2025-10-01 14:38:52.281479,0.3721356248483062,-0.009098687823861838,-9.802934224605561,1362.4272679999704,0.01091777488589287,-0.13505155021324755,-0.007813634276390076,1362.4272679999704,0.3830534362792969,-0.14415023803710938,-9.810748443603517,1362.4223009999841,0.0005220398306846619,0.0017821365036070347,0.00019206898286938667,1362.4272679999704
2025-10-01 14:38:52.482475,0.387203387953341,-0.005690514841116965,-9.802351841926574,1362.6259429999627,0.12398348361253739,5.064121448993683,-0.37109003305435184,1362.6259429999627,0.5111869812011719,5.058430938720703,-10.173444213867189,1362.6209759999765,-0.0008738460019230843,-0.07927863299846649,-0.004657885991036892,1362.6259429999627
2025-10-01 14:38:52.626509,0.347301403619349,0.022976140547543766,-9.803824755549432,1362.7749489999842,0.3273456971347332,2.4581144964694976,-0.19134077668190003,1362.7749489999842,0.6746470642089845,2.481090545654297,-9.995164947509766,1362.769981999998,-0.08885800093412399,0.08259283006191254,0.016734208911657333,1362.7749489999842
2025-10-01 14:38:52.752759,0.40822855018079285,-0.006726551234023646,-9.801499317884446,1362.9040870000026,-3.066101548075676,-9.443421678543091,3.1451418703794483,1362.9040870000026,-2.6578729248046877,-9.450148315429688,-6.656358032226563,1362.8991200000164,-0.018654167652130127,0.19393110275268555,0.09796451777219772,1362.9040870000026
2025-10-01 14:38:52.896080,0.4629027208685875,-0.016120826087426394,-9.799061613678933,1363.0431597499992,0.715596723407507,-2.8908341825008392,0.8493209373950958,1363.0431597499992,0.329315185546875,-2.2567071533203125,-9.409283294677735,1363.0481267499854,-0.004273022059351206,-0.022707853466272354,0.014563526958227158,1363.0431597499992
2025-10-01 14:38:53.040692,0.484876155294478,-0.01908283367520198,-9.797988649606705,1363.18223174999,0.027208812050521374,0.7365408651530743,-0.06484854519367218,1363.18223174999,0.5120851135253907,0.7174580383300782,-9.862840118408204,1363.1772657500114,-0.001847594976425171,0.01705854944884777,0.0016233613714575768,1363.18223174999
2025-10-01 14:38:53.158503,0.4632737997919321,-0.009632987432414666,-9.799048749804497,1363.311370750016,0.03923112597316504,0.02879315167665482,-0.38711725115776063,1363.311370750016,0.5025050354003906,0.01916015625,-10.186167755126954,1363.3064037499717,-0.0013165827840566635,-0.0022337851114571095,-0.0027329595759510994,1363.311370750016
2025-10-01 14:38:53.294220,0.4540024181082845,-0.0066311382647836585,-9.7994861215353,1363.4405087499763,-0.004038160219788552,0.10916790909133853,0.24665192842483522,1363.4405087499763,0.4206253051757813,0.10014175415039063,-9.827812957763673,1363.4454757499625,0.001980740576982498,-0.006263194605708122,0.0014950206968933344,1363.4405087499763
2025-10-01 14:38:53.438395,0.4572335163876414,-0.008150745673337952,-9.799334678649902,1363.5696477500023,-0.003227663040161133,-0.06205326091032475,-0.009467226862907411,1363.5696477500023,0.4709207153320313,-0.06032455444335938,-9.842332763671875,1363.5746147499885,0.0009247483685612679,0.001275814138352871,-0.0007155779749155045,1363.5696477500023
2025-10-01 14:38:53.571719,0.45861166857182983,-0.00906449246162083,-9.799269189834595,1363.7087197499932,0.007069904990494252,-0.01413726781262085,0.010077091455459595,1363.7087197499932,0.4656816101074219,-0.023201751708984378,-9.789193267822267,1363.703752750007,0.0009758663363754749,0.0002818367211148143,0.0012213021982461214,1363.7087197499932
2025-10-01 14:38:53.692888,0.4582691313698888,-0.009204817072022706,-9.79928848564625,1363.837858749961,0.00411936342716217,-0.009356578013976106,-0.040800701379776004,1363.837858749961,0.45699966430664063,-0.030386810302734376,-9.75147171020508,1363.8428257500054,0.003235760610550642,0.0015508807264268398,-0.00048306677490472794,1363.837858749961
2025-10-01 14:38:53.835815,0.45901158157736066,-0.008914597032708116,-9.799250478744508,1363.97693075001,0.0072687468677759175,-0.01952625590376556,-0.03469854712486267,1363.97693075001,0.4712200927734375,-0.0221539306640625,-9.795330505371094,1363.9818977499963,0.0005643735639750957,-0.0007861389312893152,-0.000860363245010376,1363.97693075001
2025-10-01 14:38:53.961874,0.4593710757046938,-0.008970274060266093,-9.799238199591636,1364.106069625006,0.004215001948177814,-0.00689673376036808,0.0028569495677948,1364.106069625006,0.4635859680175782,-0.015867004394531252,-9.796378326416017,1364.1011026249616,0.0033011771738529205,0.0005055872024968266,-0.0014671897515654564,1364.106069625006
2025-10-01 14:38:54.093237,0.46058576166629794,-0.009561924918671139,-9.799177388548852,1364.245141624997,0.0031499681621789933,-0.010646057515405118,-0.014266036748886109,1364.245141624997,0.46373565673828127,-0.020207977294921877,-9.813442840576172,1364.2401746250107,0.0002709347754716873,0.0010693761287257075,0.0016307819169014692,1364.245141624997
2025-10-01 14:38:54.216303,0.46126952044665814,-0.009523851778940298,-9.79914815247059,1364.3643466249923,0.0102500594034791,-0.015474168575601653,-0.007711308002471925,1364.3643466249923,0.47151947021484375,-0.024998016357421875,-9.806856536865235,1364.359379625006,-0.00021535111591219902,0.00021427817409858108,-0.0023230621591210365,1364.3643466249923
2025-10-01 14:38:54.363154,0.46169921770691874,-0.010224448142107576,-9.799123009443283,1364.5133526250138,0.010269245579838753,-0.010432590746786445,0.0108290433883667,1364.5133526250138,0.47196853637695313,-0.02065704345703125,-9.788295135498048,1364.5083856249694,-0.0027467345353215933,0.0006791322957724333,0.0006674923934042454,1364.5133526250138
2025-10-01 14:38:54.482273,0.4615710905939341,-0.009922276142751799,-9.799130610823632,1364.6325576250092,0.007553360089659691,-0.012381348952185364,0.0012548124790191652,1364.6325576250092,0.46912445068359376,-0.022303619384765626,-9.797875213623048,1364.6275906249648,-0.0020935768261551857,0.00034686236176639795,0.0004983502440154552,1364.6325576250092
2025-10-01 14:38:54.608971,0.46176704540848734,-0.010279300049878657,-9.799120670557022,1364.7517626250046,0.004513319581747055,-0.023700030413456263,0.01651370644569397,1364.7517626250046,0.465831298828125,-0.023201751708984378,-9.796977081298829,1364.7567296249908,0.001161152496933937,-0.00042852171463891864,-0.00030443305149674416,1364.7517626250046
2025-10-01 14:38:54.761045,0.46169296849519015,-0.010539699860382825,-9.799123594164849,1364.900768624968,0.0035395023599267008,-0.016553952876711266,0.0022967863082885742,1364.900768624968,0.46523254394531255,-0.027093658447265627,-9.796827392578125,1364.8958016249817,-0.0009073247201740742,-0.0008711391128599644,-0.0002610236406326294,1364.900768624968
2025-10-01 14:38:54.893036,0.4620831605046988,-0.010725153669482098,-9.79910371363163,1365.0398408749606,0.004047406129539013,-0.01696726308669895,0.003924651145935059,1365.0398408749606,0.46717849731445316,-0.022303619384765626,-9.821526031494141,1365.044807875005,-0.0003022262826561928,0.001719319843687117,0.00010221777483820915,1365.0398408749606
2025-10-01 14:38:55.009963,0.46258430343121293,-0.011263369313674047,-9.79907915532589,1365.1590458750143,-0.0009443984180688859,-0.013285578597569838,0.0064448010921478276,1365.1590458750143,0.4616400146484375,-0.024548950195312502,-9.792636108398439,1365.1540788749699,-0.0009520943276584148,-0.0008231108076870441,0.0018686323892325163,1365.1590458750143
2025-10-01 14:38:55.124315,0.4627677963674069,-0.010993105752859266,-9.799074477553368,1365.2782508750097,0.0045604993030428885,-0.006969547583721578,0.0032931518554687503,1365.2782508750097,0.4673281860351563,-0.017962646484375,-9.795779571533204,1365.2732838749653,-0.002042759908363223,0.0017627330962568521,0.0009593777358531952,1365.2782508750097
2025-10-01 14:38:55.256958,0.4629950703307987,-0.010925371698103845,-9.799062198400497,1365.397455875005,0.0034349833801388743,-0.013773261507740244,0.005378268957138062,1365.397455875005,0.46657974243164063,-0.026345214843750003,-9.805509338378906,1365.4024228749913,-0.0008503622375428677,-0.0008070039912126958,-0.0008628079667687416,1365.397455875005
2025-10-01 14:38:55.374690,0.4629597677662969,-0.010989042394794524,-9.799063367843628,1365.5265938749653,0.007661533579230309,-0.01236240488709882,0.006577532887458801,1365.5265938749653,0.47062133789062505,-0.023351440429687502,-9.792486419677735,1365.5216278749867,-0.001964218681678176,4.441605415195227e-05,-0.0004706988111138344,1365.5265938749653
2025-10-01 14:38:55.509523,0.4635416022688151,-0.011750505189411342,-9.799034131765366,1365.6557328749914,-0.005943256169557572,-0.014445023217704148,-0.008419990539550781,1365.6557328749914,0.4716691589355469,-0.026195526123046875,-9.807455291748047,1365.6507658750052,0.0011321241036057472,0.0005817693308927119,-0.0010249186307191849,1365.6557328749914
2025-10-01 14:38:55.635184,0.46402260884642604,-0.012590221316786483,-9.799011912345886,1365.7848718750174,-0.0008857069909572601,-0.01195873230462894,-0.0017073869705200196,1365.7848718750174,0.4631369018554688,-0.024548950195312502,-9.800719299316407,1365.779904874973,0.0013836398720741272,-0.00041420807247050107,-0.0019826479256153107,1365.7848718750174
2025-10-01 14:38:55.761090,0.4640199045091868,-0.012954488005489111,-9.799009573459626,1365.9040768750128,0.0021106986701488494,-0.012193220498738812,-0.009641473889350891,1365.9040768750128,0.46643005371093754,-0.01945953369140625,-9.7956298828125,1365.909043874999,0.00043402519077062607,-0.001522253965958953,-0.0004456210881471634,1365.9040768750128
2025-10-01 14:38:55.884779,0.46350480135530236,-0.013372648435179145,-9.799037640094758,1366.0332139166421,0.006068825125694275,-0.012373820662032813,0.004752616882324219,1366.0332139166421,0.46957351684570314,-0.025746459960937502,-9.794282684326172,1366.0282488749945,-3.641052171587944e-05,-0.0007069892017170787,-0.0009478870779275894,1366.0332139166421
2025-10-01 14:38:56.011243,0.4633512023091316,-0.012906840050127358,-9.79904231786728,1366.1623529166682,0.0011328614875674248,-0.010594283390091733,-0.0016763967275619507,1366.1623529166682,0.4644841003417969,-0.023501129150390626,-9.800719299316407,1366.157385916682,-0.0015424760058522224,0.0007096396293491125,0.00043420190922915936,1366.1623529166682
2025-10-01 14:38:56.147744,0.4636689619347453,-0.013292411388829351,-9.799027115106583,1366.291491916636,-0.003226457051932812,-0.021734749255701902,-0.0036381375789642334,1366.291491916636,0.45640090942382816,-0.022902374267578126,-9.800569610595703,1366.2964589166804,0.0008723726496100426,0.000788832432590425,-0.0014608530327677727,1366.291491916636
2025-10-01 14:38:56.268711,0.4639582894742489,-0.013242183577967808,-9.799013081789017,1366.4206299166544,-0.0006717354431748391,-0.017294320013606923,-0.011734777092933656,1366.4206299166544,0.4632865905761719,-0.0305364990234375,-9.810748443603517,1366.4156639166758,-0.0009207013063132763,-0.0007634665817022324,-0.0018361816182732582,1366.4206299166544
2025-10-01 14:38:56.391211,0.463886076360941,-0.01362831108737737,-9.799017174839975,1366.5398349166499,0.0002987196296453476,-0.008076549988472835,-0.005594615936279297,1366.5398349166499,0.46418472290039064,-0.021704864501953126,-9.804611206054688,1366.5348689166713,-0.001953419763594866,-0.001943750074133277,0.0012454497627913952,1366.5398349166499
2025-10-01 14:38:56.513264,0.464116054661572,-0.013266191423172131,-9.799006065130234,1366.6590399166453,-0.0005300866439938546,-0.006492725419811904,-0.0009647905826568604,1366.6590399166453,0.4635859680175782,-0.0197589111328125,-9.79997085571289,1366.6540739166667,-0.00022155232727527618,0.000489578815177083,-0.00010841432958841324,1366.6590399166453
2025-10-01 14:38:56.639158,0.46383787337690596,-0.01405513613135554,-9.799015420675278,1366.7881789166713,4.7325901687145236e-05,-0.00869754598941654,-0.007838192582130433,1366.7881789166713,0.4638853454589844,-0.022752685546875002,-9.806856536865235,1366.783211916685,0.0007665338926017284,-0.0010128135327249765,0.0008437745273113251,1366.7881789166713
2025-10-01 14:38:56.763370,0.4638391159102321,-0.01475388411199674,-9.799019513726234,1366.9073839166667,0.010374860912561417,-0.020273283384740354,-0.012628816366195679,1366.9073839166667,0.4709207153320313,-0.025297393798828127,-9.803563385009767,1366.912350916653,-0.0017900075763463974,-0.001775478944182396,-0.0022384230978786945,1366.9073839166667
2025-10-01 14:38:56.891577,0.46414152659475805,-0.01526129338075407,-9.799000217914582,1367.0365229166346,-0.0008550091087818146,-0.0035994820017367602,-0.0005198174715042114,1367.0365229166346,0.4632865905761719,-0.018860778808593753,-9.799521789550782,1367.0315559166484,0.00033727288246154785,-0.0011982019059360027,0.00036556366831064224,1367.0365229166346
2025-10-01 14:38:57.027630,0.4645260906592012,-0.015839642394566908,-9.798982091546058,1367.1755949166836,0.002802058830857277,-0.006913043152308092,0.006796218752861023,1367.1755949166836,0.4513114929199219,-0.024998016357421875,-9.797126770019531,1367.1805619166698,0.001154119148850441,-0.001364892115816474,0.0006258194334805012,1367.1755949166836
2025-10-01 14:38:57.149230,0.4642435970529914,-0.015542607265524568,-9.798996124863626,1367.294799916679,0.01341303762048483,-0.00795851731672883,0.013096593618392945,1367.294799916679,0.4806504821777344,-0.029488677978515627,-9.803413696289063,1367.2997669166652,0.0008311159908771515,0.0009054152760654688,-0.0012910477817058563,1367.294799916679
2025-10-01 14:38:57.293894,0.46457323383539917,-0.015792530053295197,-9.798979167938233,1367.4338729166775,0.006497097127139568,-0.003367631906876341,-0.01461160719394684,1367.4338729166775,0.4710704040527344,-0.01916015625,-9.813592529296875,1367.428905916633,0.0013391245156526566,0.001657288521528244,-0.0013607591390609741,1367.4338729166775
2025-10-01 14:38:57.421797,0.46513416454195977,-0.016045747610041874,-9.798953440189361,1367.5630109166377,0.00967842098325491,-0.003713169232942164,-0.0004180759191513062,1367.5630109166377,0.46538223266601564,-0.027692413330078127,-9.789342956542969,1367.5679779166821,-0.0015594474971294403,0.0010439534671604633,-0.0012789545580744743,1367.5630109166377
2025-10-01 14:38:57.549354,0.46567397218197587,-0.016701155388727785,-9.798927712440491,1367.7020839166362,0.0025523461773991588,-0.004704329387750477,0.008686623573303224,1367.7020839166362,0.468226318359375,-0.021405487060546877,-9.790241088867187,1367.69711691665,0.0002267640084028244,-0.0009564434876665473,-0.00099885743111372,1367.7020839166362
2025-10-01 14:38:57.678143,0.46597415361553435,-0.016338537797564643,-9.79891660273075,1367.8212889166316,0.004796982631087303,-0.007911030388204381,0.007774457931518555,1367.8212889166316,0.4667294311523438,-0.025147705078125002,-9.803413696289063,1367.826255916676,-0.002583430614322424,1.9700266420841217e-05,0.0003259219229221344,1367.8212889166316
2025-10-01 14:38:57.811387,0.4658154017105699,-0.01644981419434771,-9.798918941617012,1367.9603609166807,0.006153061576187611,-0.010494149822043256,-0.0022476696968078613,1367.9603609166807,0.47196853637695313,-0.026943969726562503,-9.801168365478516,1367.9553939166362,-0.0023798777256160975,-0.0011025209678336978,-0.0012651984579861164,1367.9603609166807
2025-10-01 14:38:57.942292,0.46565328765660524,-0.01712932460708544,-9.798928297162057,1368.0894998749718,0.0070637654140591625,-0.008617134211817756,0.0009028100967407227,1368.0894998749718,0.4727169799804688,-0.025746459960937502,-9.79802490234375,1368.0845328749856,-0.0026527047157287598,-0.00017278321320191026,0.0024164312053471804,1368.0894998749718
2025-10-01 14:38:58.076323,0.46553320046514274,-0.016744499016785996,-9.798937067985536,1368.2285718749627,0.005687075033783913,-0.01813298661145382,-0.0011869847774505615,1368.2285718749627,0.4712200927734375,-0.034877471923828125,-9.800120544433595,1368.223605874984,2.155127003788948e-05,-0.00037052150582894683,0.0006802303250879049,1368.2285718749627
2025-10-01 14:38:58.203904,0.4656368058174849,-0.016130846296437084,-9.798928297162057,1368.3477768750163,0.0006434860825538636,-0.015603156782453881,-0.000292360782623291,1368.3477768750163,0.4667294311523438,-0.032332763671875,-9.791588287353516,1368.3527438750025,-0.0019245720468461514,-0.0011782273650169373,0.002651078626513481,1368.3477768750163
2025-10-01 14:38:58.336939,0.4657158528640867,-0.015032072248868645,-9.798928297162057,1368.4769158749841,0.003558286540210247,-0.008319373890990392,-0.007629446983337403,1368.4769158749841,0.47376480102539065,-0.02245330810546875,-9.807604980468751,1368.4818828749703,0.0018934765830636024,-0.002625253750011325,-0.002428314182907343,1368.4769158749841
2025-10-01 14:38:58.465233,0.46532971736043693,-0.015515029421076179,-9.798944669365884,1368.6159888749826,-0.006084722243249417,-0.0061898339388426395,0.00391412615776062,1368.6159888749826,0.4592449951171875,-0.021704864501953126,-9.795031127929688,1368.6110218749964,-0.00014824094250798225,-0.00038837193278595805,-0.0020996793173253536,1368.6159888749826
2025-10-01 14:38:58.602906,0.4650174394994974,-0.014591723234625533,-9.798963965177537,1368.745126875001,-0.0002338520810008049,-0.010106927101733163,-0.0017576730251312256,1368.745126875001,0.46478347778320317,-0.024698638916015626,-9.800719299316407,1368.7401598750148,-0.00039703119546175003,-0.000906756438780576,0.0005204323679208755,1368.745126875001
2025-10-01 14:38:58.729826,0.4652502317726612,-0.014949062343221159,-9.798950516581536,1368.8742658749688,0.004173669442534447,-0.011695535652106629,0.0003262746334075928,1368.8742658749688,0.469423828125,-0.02664459228515625,-9.798623657226562,1368.8692988749826,-6.454065442085266e-07,-0.002008475363254547,-0.002645060420036316,1368.8742658749688
2025-10-01 14:38:58.854476,0.46538749516010286,-0.01489414648152888,-9.798945838809013,1369.0034048749949,0.0037370651587843896,-0.011151700057089329,0.006307976245880127,1369.0034048749949,0.46912445068359376,-0.02604583740234375,-9.792636108398439,1368.9984378750087,-0.0008976161479949951,0.0003353964420966804,0.00019162753596901894,1369.0034048749949
2025-10-01 14:38:58.984236,0.4656823775544763,-0.014818275432335213,-9.798928881883622,1369.1325436666375,-0.002695237509906292,-0.005988453319296241,0.0055454993247985845,1369.1325436666375,0.46298721313476565,-0.020806732177734377,-9.793384552001953,1369.127577666659,-0.0009672073647379875,-0.0003946690703742206,-0.00018035667017102242,1369.1325436666375
2025-10-01 14:38:59.123687,0.46605645317584277,-0.014831508183851838,-9.798913679122926,1369.2616826666635,0.003666825480759144,-0.015405620250385256,0.0041807591915130615,1369.2616826666635,0.4721182250976563,-0.020357666015625,-9.79128890991211,1369.2666496666498,0.0017070714384317398,0.00033059954876080155,-0.00018996605649590492,1369.2616826666635
2025-10-01 14:38:59.260916,0.4662909996137023,-0.014583566825604067,-9.79890081524849,1369.400755666662,-0.0021063132584095002,-0.009815699217142537,0.004918093085289002,1369.400755666662,0.46059219360351566,-0.030985565185546876,-9.810149688720704,1369.4057226666482,7.045548409223557e-05,2.6837573386728764e-05,0.0013468165416270494,1369.400755666662
2025-10-01 14:38:59.423394,0.46583575733006005,-0.014178016738733278,-9.798924204111099,1369.569628666679,0.005534097254276276,-0.009323110127588734,-0.002245330810546875,1369.569628666679,0.469423828125,-0.023201751708984378,-9.799671478271485,1369.5745956666651,-2.7873553335666656e-05,-0.001639984897337854,-0.00019693700596690178,1369.569628666679
2025-10-01 14:38:59.552148,0.46514805167913437,-0.013657088067848235,-9.798959287405015,1369.6888336666743,-0.0011129078641533851,-0.00939498063060455,-0.009995230436325074,1369.6888336666743,0.469423828125,-0.0305364990234375,-9.800719299316407,1369.6938006666605,0.0007906774990260601,-0.0019272260833531618,-0.0001439838670194149,1369.6888336666743
2025-10-01 14:38:59.675213,0.4652166833728552,-0.013878689546836541,-9.798952270746232,1369.8179726666422,0.0016623634099960328,-0.00737711678724736,0.007514841556549073,1369.8179726666422,0.468226318359375,-0.026943969726562503,-9.787995758056642,1369.8229396666284,-0.0004275175742805004,-0.001396020408719778,-7.768161594867706e-06,1369.8179726666422
2025-10-01 14:38:59.795737,0.4650509148091078,-0.01387200293596834,-9.798962795734406,1369.9471116666682,0.008863648027181625,-0.0072341135353781285,-0.008343976736068726,1369.9471116666682,0.4739144897460938,-0.021106109619140626,-9.807305603027345,1369.942144666682,-4.629138857126236e-06,0.0030498369596898556,0.0012758895754814148,1369.9471116666682
2025-10-01 14:38:59.921277,0.4655757755041123,-0.013952712784521282,-9.79893882215023,1370.0663167916355,0.001004076562821865,-0.013290640093619004,-0.008818770647048951,1370.0663167916355,0.4650828552246094,-0.028590545654296876,-9.797875213623048,1370.07128379168,-5.46453520655632e-05,-0.002079587196931243,-0.0005765068344771862,1370.0663167916355
2025-10-01 14:39:00.046689,0.4653151358664036,-0.013568524449365214,-9.798949347138405,1370.1954557916615,0.007701294645667076,-0.004394127745181322,0.014545533657073976,1370.1954557916615,0.4724176025390625,-0.027393035888671875,-9.804611206054688,1370.20042179164,-0.0007112319581210613,-0.0015568183735013008,-0.003462024964392185,1370.1954557916615
2025-10-01 14:39:00.171581,0.464986960887909,-0.013566893624374644,-9.798967473506927,1370.314660791657,-0.002448704279959202,-0.010982066849246621,0.013214707374572754,1370.314660791657,0.4646337890625,-0.030386810302734376,-9.787546691894532,1370.3196267916355,-0.00048093171790242195,0.0015267743729054928,-0.0009404933080077171,1370.314660791657
2025-10-01 14:39:00.321022,0.4655983603745699,-0.01356622439227067,-9.798934729099274,1370.4636667916784,0.0014304116740822793,-0.012629294878570363,0.016927104592323303,1370.4636667916784,0.48828460693359377,-0.023351440429687502,-9.796977081298829,1370.4686337916646,0.0006007286719977856,0.003807741217315197,0.0015025646425783634,1370.4636667916784
2025-10-01 14:39:00.443901,0.454318313933909,-0.008707009456702509,-9.799469749331475,1370.5928057916462,0.042498550079762935,-0.02212887443136424,0.009678311347961426,1370.5928057916462,0.4968168640136719,-0.030835876464843752,-9.789792022705079,1370.58783879166,-0.008638947270810604,-0.023290475830435753,-0.0006540920585393906,1370.5928057916462
2025-10-01 14:39:00.572781,0.4476888139173389,-0.0058964516065316275,-9.799778482317924,1370.7219437916647,0.02098657060414553,0.009638675905298441,0.0066927230358123785,1370.7219437916647,0.4686753845214844,0.003742218017578125,-9.793085174560547,1370.7169767916785,0.0012465231120586395,-0.0048306845128536224,0.0006069852970540524,1370.7219437916647
2025-10-01 14:39:00.716393,0.4479506960883737,-0.00586979252868332,-9.799763864278793,1370.8610167916631,0.0065041868761181836,0.05631488569546491,-0.009036871790885926,1370.8610167916631,0.4409829711914063,0.056133270263671875,-9.802066497802734,1370.8659837916493,-0.0030517270788550377,-0.0007667468744330108,-0.0018541095778346062,1370.8610167916631
2025-10-01 14:39:00.839458,0.4496606412157417,-0.0050991089490707965,-9.799690774083137,1370.990155791631,-0.0019415679574012758,-0.048190083615481855,-0.0013308262825012208,1370.990155791631,0.4477189636230469,-0.0532891845703125,-9.801018676757813,1370.9851887916448,0.0031950026750564575,-0.0011658186558634043,-0.00027892645448446274,1370.990155791631
2025-10-01 14:39:00.978782,0.4488811708241701,-0.004494172805570997,-9.79972117960453,1371.1192937499727,-0.15803613267838956,-1.0898800671100617,0.18372068524360657,1371.1192937499727,0.7472460937500001,-2.281106414794922,-10.09545639038086,1371.1242607500171,-0.012236794456839561,-0.03911035880446434,0.004210242535918951,1371.1192937499727
2025-10-01 14:39:01.100274,0.34575433999300004,0.01356912173330784,-9.803897845745087,1371.2484327499988,0.1319024408608675,-6.878443468809128,0.3076430654525757,1371.2484327499988,0.4776567077636719,-6.864874420166016,-9.49625244140625,1371.2434657500125,0.07664988189935684,-0.3218991160392761,-0.13690459728240967,1371.2484327499988
2025-10-01 14:39:01.259524,0.3728531878441572,0.02153430624632165,-9.802888031601906,1371.4073727499926,-2.3722455033659937,0.14267421808093786,0.030010834336280823,1371.4073727499926,-1.8878741455078125,1.3034893798828127,-8.322842559814454,1371.4123397499789,0.023799799382686615,0.4803360104560852,0.06154675781726837,1371.4073727499926
2025-10-01 14:39:01.379698,0.39742991231381897,-0.006158683811081573,-9.801945460438729,1371.526577749988,0.0332245371490717,5.059650083184242,-2.232728891372681,1371.526577749988,-1.9821780395507813,4.978048095703126,-7.830366668701172,1371.5315447499743,-0.006703608203679323,0.17792850732803345,0.040841542184352875,1371.526577749988
2025-10-01 14:39:01.498450,0.39022771406918766,-0.0018522635869157968,-9.80223431289196,1371.6457827499835,-0.8294144571572543,4.0530279350280765,1.0893041163682937,1371.6457827499835,0.7726931762695313,3.276237030029297,-8.980125732421875,1371.6507497499697,0.005676299799233675,-0.03270856663584709,-0.022547760978341103,1371.6457827499835
2025-10-01 14:39:01.632026,0.36802751731127503,0.0065018405666342005,-9.803092684149743,1371.7848547499743,-0.16295396994799377,0.07358162672258914,-0.12995202898979188,1371.7848547499743,0.20507354736328126,0.08008346557617188,-9.933044128417968,1371.7798887499957,0.0033334381878376007,-0.008122926577925682,0.0045348284766077995,1371.7848547499743
2025-10-01 14:39:01.772985,0.3684704073518515,0.007101093376404606,-9.80307221889496,1371.9139937500004,-0.000984707660973072,-0.07984981449320913,0.026755104660987857,1371.9139937500004,0.2662962341308594,-0.0718505859375,-9.790390777587891,1371.9189607499866,-0.00063310656696558,0.002601397456601262,0.002281300723552704,1371.9139937500004
2025-10-01 14:39:01.905024,0.36841200828552245,0.007672771767829545,-9.80307689666748,1372.053066249995,0.03993882179260254,-0.03596393484156579,0.0734597396850586,1372.053066249995,0.408350830078125,-0.028291168212890627,-9.729617156982423,1372.0480992500088,-0.002603362314403057,0.0019743558950722218,-0.00025100866332650185,1372.053066249995
2025-10-01 14:39:02.022319,0.3678632105514407,0.008000467091915198,-9.803096777200698,1372.1722712499904,0.028961551487445832,0.011459067170508206,0.0350102037191391,1372.1722712499904,0.3968247985839844,0.01945953369140625,-9.768087158203125,1372.1673042500042,-0.001981024630367756,0.0008402936509810388,0.0006840047426521778,1372.1722712499904
2025-10-01 14:39:02.139104,0.3685038095712662,0.009135599514702336,-9.803071634173394,1372.2914762499859,0.022183714918792247,-0.02724793814588338,0.04770860195159912,1372.2914762499859,0.3906875610351563,-0.018112335205078125,-9.75536361694336,1372.2865092499997,-0.0005273721180856228,-0.0028335375245660543,0.00019593117758631706,1372.2914762499859
2025-10-01 14:39:02.262514,0.36915237542241813,0.008712404997786508,-9.803045321702959,1372.4106812499813,0.0104581106454134,-0.041494235973805194,0.035110775828361515,1372.4106812499813,0.36209701538085937,-0.018711090087890625,-9.830357666015626,1372.415647250018,-0.001621113158762455,0.0003783702268265188,0.001102660782635212,1372.4106812499813
2025-10-01 14:39:02.398635,0.3686770333349705,0.009287389578530566,-9.803065786957742,1372.5398192499997,-0.01047192469239235,-0.01437680494040251,-0.03492541909217835,1372.5398192499997,0.35820510864257815,-0.00508941650390625,-9.837991790771484,1372.5348522500135,-0.0009216954931616783,-0.0027893725782632828,-0.00027764635160565376,1372.5398192499997
2025-10-01 14:39:02.540434,0.36853377655148506,0.008939122790470719,-9.803071634173394,1372.6888262499706,-0.005987658463418484,-0.03034461213508621,-0.005881129503250123,1372.6888262499706,0.36254608154296875,-0.021405487060546877,-9.808952178955078,1372.6838592499844,0.0014957189559936523,-0.00016620414680801332,0.003504520747810602,1372.6888262499706
2025-10-01 14:39:02.679806,0.3684483341127634,0.009174212265643291,-9.803072803616525,1372.817964249989,0.0012827329337596893,-0.021298996929544955,0.02316199064254761,1372.817964249989,0.3683839416503906,-0.010328521728515625,-9.814490661621095,1372.8229312499752,-0.0015725651755928993,-0.0017088844906538725,0.00045274337753653526,1372.817964249989
2025-10-01 14:39:02.807858,0.3680785708129406,0.009157653339207173,-9.803089760541916,1372.9570372499875,0.011681750155985356,-0.022479949481785298,0.006111509799957276,1372.9570372499875,0.37976028442382814,-0.013322296142578125,-9.796977081298829,1372.9520702500013,-0.0019077751785516739,0.0009154857834801078,0.0006161313503980637,1372.9570372499875
2025-10-01 14:39:02.942618,0.3680083676800132,0.00904645973991137,-9.803090929985046,1373.0861749166506,-0.00905481543391943,-0.018177472273819148,-0.011998486518859864,1373.0861749166506,0.35895355224609377,-0.009131011962890626,-9.815089416503907,1373.081208916672,-0.0028152319137007,0.0006753997877240181,-0.001027046237140894,1373.0861749166506
2025-10-01 14:39:03.071868,0.36748891565948727,0.008689888078370131,-9.80310905635357,1373.2153139166767,-0.0038950861617922787,-0.02560471979901195,0.0010443127155303955,1373.2153139166767,0.37497024536132817,-0.004939727783203125,-9.80850311279297,1373.220280916663,0.0004487670958042145,0.0015630315756425261,-0.0003586066886782646,1373.2153139166767
2025-10-01 14:39:03.207587,0.36721175763756037,0.007986608505598269,-9.803121920228005,1373.3543869166751,0.0034175513684749606,-0.022057344254571946,-0.007028353214263917,1373.3543869166751,0.3706292724609375,-0.014070739746093752,-9.810149688720704,1373.3494199166307,-0.0012994161807000637,-0.0014459858648478985,-0.00042736297473311424,1373.3543869166751
2025-10-01 14:39:03.338926,0.3673989050835371,0.008393972142948769,-9.803116657733918,1373.493458916666,-0.001709287315607071,-0.01647715677972883,0.0014968872070312501,1373.493458916666,0.3656895446777344,-0.00808319091796875,-9.801617431640626,1373.4884919166798,0.0013679689727723598,0.0016347174532711506,0.00017490657046437263,1373.493458916666
2025-10-01 14:39:03.470461,0.36706418853253125,0.00782788172538858,-9.803127767443657,1373.6225979166338,0.006858272328972817,-0.020401734835468234,0.0009109961986541749,1373.6225979166338,0.37392242431640627,-0.012573852539062501,-9.802216186523438,1373.6176309166476,0.0005504093132913113,0.0009329711901955307,0.0009346918668597937,1373.6225979166338
2025-10-01 14:39:03.612109,0.36696489550173284,0.00839684721431695,-9.803133029937745,1373.7616699166829,0.00755635678768158,-0.024862607633695008,0.0007648158073425294,1373.7616699166829,0.37212615966796875,-0.016465759277343752,-9.80236587524414,1373.7567029166385,0.0017943908460438251,0.0005472146440297365,-0.00027898745611310005,1373.7616699166829
2025-10-01 14:39:03.739942,0.3671747009083629,0.007537035851273686,-9.803127182722092,1373.8908089166507,-0.002682519815862179,-0.013823957552667708,-0.0002900218963623047,1373.8908089166507,0.3644920349121094,-0.006286926269531251,-9.803413696289063,1373.8858419166645,-0.0020296419970691204,-0.0005207129870541394,-0.0009370543994009495,1373.8908089166507
2025-10-01 14:39:03.872941,0.367144733928144,0.008089511506841519,-9.803123089671136,1374.0199479166768,-0.004299348033964634,-0.022908701137639584,0.001057761311531067,1374.0199479166768,0.36284545898437504,-0.014819183349609376,-9.802066497802734,1374.0149809166323,0.002492869272828102,-0.001207544468343258,-0.00018933741375803947,1374.0199479166768
2025-10-01 14:39:04.027821,0.3671473651751876,0.007034256960614584,-9.803123089671136,1374.1689544166438,0.004978721402585507,-0.021703754444606604,-0.003881381750106812,1374.1689544166438,0.37167709350585937,-0.011975097656250001,-9.797725524902344,1374.17392141663,-0.00016912352293729782,0.00010065222159028053,0.0025258399546146393,1374.1689544166438
2025-10-01 14:39:04.154448,0.3670994545519352,0.006824484101962298,-9.803127767443657,1374.2980934166699,-0.007247806526720524,-0.015656120907515288,0.008994187116622926,1374.2980934166699,0.3680845642089844,-0.013471984863281251,-9.796528015136719,1374.303060416656,-0.0015995302237570286,-6.345350993797183e-05,0.002643063897266984,1374.2980934166699
2025-10-01 14:39:04.291161,0.367327569052577,0.0064159356040181595,-9.803120166063309,1374.42723141663,0.0007570317015051843,-0.01779228009050712,0.007938179969787598,1374.42723141663,0.3656895446777344,-0.009729766845703125,-9.804461517333985,1374.4321984166745,-0.0007297946140170097,-0.0017105318838730454,0.0007971061859279871,1374.42723141663
2025-10-01 14:39:04.422290,0.3677321963757277,0.006508245666045696,-9.803104378581047,1374.5663044166286,-0.005635144449770451,-0.023273380100727083,-0.009291225671768188,1374.5663044166286,0.36778518676757815,-0.016914825439453125,-9.80326400756836,1374.571271416673,-0.0028196857310831547,0.0009578015888109803,0.002192743355408311,1374.5663044166286
2025-10-01 14:39:04.557403,0.36792555648833514,0.006215703870984726,-9.803096777200698,1374.6954434166546,-0.006576984710991383,-0.023280216318089516,0.010909734964370728,1374.6954434166546,0.36134857177734375,-0.017064514160156252,-9.792187042236328,1374.6904764166684,-0.00047013256698846817,-0.0003086338983848691,5.682231858372688e-05,1374.6954434166546
2025-10-01 14:39:04.676048,0.36808971706777815,0.006260838208836504,-9.803089760541916,1374.824581416673,-0.0025498976558446886,-0.023624724671244622,-0.0003233510255813599,1374.824581416673,0.3661386108398438,-0.009131011962890626,-9.802665252685548,1374.8295484166592,-0.0020152064971625805,0.001534262322820723,9.199650958180428e-05,1374.824581416673
2025-10-01 14:39:04.807856,0.3684944540262223,0.005502223647781648,-9.803076311945915,1374.9537204166409,-0.005648958496749401,-0.020022026700899007,0.0023564279079437258,1374.9537204166409,0.36284545898437504,-0.014519805908203126,-9.800719299316407,1374.9487534166547,0.0017253849655389786,-0.0006934548728168011,-0.00033900514245033264,1374.9537204166409
2025-10-01 14:39:04.932788,0.3683316456153989,0.005601740517304279,-9.803083328604698,1375.0828592916369,-0.002642064392566681,-0.013984312873799355,-0.004373717308044434,1375.0828592916369,0.3656895446777344,-0.008382568359375,-9.807455291748047,1375.0778922916506,0.0006629195995628834,-0.001038039568811655,-0.00020908378064632416,1375.0828592916369
2025-10-01 14:39:05.052472,0.36845271952450276,0.005843140874058008,-9.803078066110611,1375.2020642916323,0.0008293909952044487,-0.020063564772717656,-0.003929328918457031,1375.2020642916323,0.3692820739746094,-0.014220428466796876,-9.807006225585939,1375.197097291646,0.0014239461161196232,0.0009191911085508764,-0.0009842352010309696,1375.2020642916323
2025-10-01 14:39:05.180502,0.36841383554041385,0.005799380974494853,-9.803080404996873,1375.3312022916507,-0.0004788869619369507,-0.022115450960118323,0.0038556540012359623,1375.3312022916507,0.36793487548828124,-0.016316070556640624,-9.799222412109376,1375.326236291672,-0.0007486985996365547,0.0013044779188930988,0.0008705733343958855,1375.3312022916507
2025-10-01 14:39:05.303265,0.36869614642113446,0.005585061106248759,-9.803066956400873,1375.4504072916461,-0.007946329526603223,-0.019955176580697297,-0.002591485977172852,1375.4504072916461,0.36823425292968753,-0.009131011962890626,-9.806257781982422,1375.4553742916323,0.002000293228775263,-0.0006563549977727234,-0.001284829806536436,1375.4504072916461
2025-10-01 14:39:05.435932,0.3688156854361296,0.004929185093496926,-9.80306344807148,1375.5795462916722,-0.001479601375758648,-0.01361112803919241,0.0044397908449172975,1375.5795462916722,0.3673361206054688,-0.00868194580078125,-9.798623657226562,1375.5745792916277,-0.0008242335170507431,0.0029264865443110466,-0.0014330390840768814,1375.5795462916722
2025-10-01 14:39:05.565501,0.36949557043612,0.004769773949228693,-9.80303888976574,1375.70868529164,0.00023560624569654465,-0.017942382227629426,0.011000951528549194,1375.70868529164,0.3656895446777344,-0.012124786376953125,-9.789941711425781,1375.7136522916844,-0.002752691740170121,-0.002268705051392317,-0.0023153573274612427,1375.70868529164
2025-10-01 14:39:05.692951,0.36953028827905654,0.004160753891046625,-9.80303888976574,1375.837824291666,-0.0009966213628649712,-0.01059737145085819,0.009502894878387451,1375.837824291666,0.3715274047851563,-0.01676513671875,-9.805958404541016,1375.8427902916446,0.0031207106076180935,0.0006396020762622356,0.0011306442320346832,1375.837824291666
2025-10-01 14:39:05.814471,0.36905567709356546,0.003699636982928496,-9.803057016134263,1375.9669622916845,-0.0021685495600104335,-0.022261035209521652,-0.004699991941452026,1375.9669622916845,0.3668870544433594,-0.0185614013671875,-9.807754669189453,1375.96199529164,2.0559877157211304e-05,0.00100058619864285,0.0026300346944481134,1375.9669622916845
2025-10-01 14:39:05.936833,0.36907855432480574,0.0032774985622381794,-9.803057016134263,1376.0861676666536,-0.0008442283049225807,-0.019294189964421095,9.004712104797363e-05,1376.0861676666536,0.36823425292968753,-0.016016693115234376,-9.802964630126954,1376.0812006666674,0.0022463160566985607,-0.0002961364225484431,0.0015635131858289242,1376.0861676666536
2025-10-01 14:39:06.063993,0.3689273672550917,0.0024306661335867833,-9.803060524463653,1376.205372666649,0.0054441232234239585,-0.013956699626287447,0.014016945362091065,1376.205372666649,0.37781433105468754,-0.013172607421875001,-9.8052099609375,1376.2103396666353,0.00031232601031661034,-0.0012073370162397623,0.0007673702202737331,1376.205372666649
2025-10-01 14:39:06.203009,0.3688695163652301,0.0025737567510805094,-9.803062863349915,1376.3444456666475,-0.0037787265703082087,-0.014099788530729712,0.003690762519836426,1376.3444456666475,0.3608995056152344,-0.014220428466796876,-9.796977081298829,1376.3494126666337,-0.001084828283637762,0.00020064355339854956,0.00020694546401500702,1376.3444456666475
2025-10-01 14:39:06.345920,0.3690724512934685,0.001912911747058388,-9.803057016134263,1376.493451666669,-0.0014368801563978196,-0.014486763429595158,0.007724171876907349,1376.493451666669,0.3704795837402344,-0.0149688720703125,-9.807155914306641,1376.4984186666552,-0.000982929952442646,0.00019109033746644855,-0.0003388533368706703,1376.493451666669
2025-10-01 14:39:06.463243,0.36891801171004773,0.0017549608364060987,-9.80306227862835,1376.6126566666644,-0.004874969869852066,-0.017322585362708198,0.005634377002716065,1376.6126566666644,0.3710783386230469,-0.011526031494140625,-9.805958404541016,1376.6176236666506,-0.0006001782603561878,0.0015108587685972452,0.0013250077608972788,1376.6126566666644
2025-10-01 14:39:06.593517,0.3695643117651344,0.0010911987912550103,-9.80303772032261,1376.7417956666322,0.006902820803225041,-0.010970653358381242,-0.015195744037628174,1376.7417956666322,0.3764671325683594,-0.00987945556640625,-9.818232879638673,1376.736828666646,0.0009447582997381687,0.0004310768563300371,0.003380073234438896,1376.7417956666322
2025-10-01 14:39:06.725441,0.36901756055653095,0.0003655611132126069,-9.803055261969567,1376.8709336666507,-0.0007833807170391083,-0.020274162751156836,-0.00260201096534729,1376.8709336666507,0.36823425292968753,-0.019908599853515625,-9.80565902709961,1376.8659666666645,2.2715888917446136e-05,-6.604843656532466e-05,-0.0012320615351200104,1376.8709336666507
2025-10-01 14:39:06.854768,0.3689889822900295,-6.34220053370882e-05,-9.803059355020524,1377.0000726666767,-0.010484459660947323,-0.012061362359672785,-0.0005051994323730469,1377.0000726666767,0.3585044860839844,-0.012124786376953125,-9.803563385009767,1376.9951056666323,-0.001263235229998827,0.0017123812576755881,0.0011851442977786064,1377.0000726666767
2025-10-01 14:39:06.976400,0.3695851790159941,-0.0005132959916591063,-9.803035966157914,1377.129210791667,0.003888179138302803,-0.012359934666892515,0.007256394624710083,1377.129210791667,0.3734733581542969,-0.012873229980468751,-9.795779571533204,1377.1242437916808,0.001838694792240858,0.001317798625677824,-0.0004356210120022297,1377.129210791667
2025-10-01 14:39:07.111870,0.36954095944762233,-0.0005356074162773439,-9.803035381436349,1377.2583487916272,0.00123792864382267,-0.009044470887165517,-0.008758544325828553,1377.2583487916272,0.37077896118164066,-0.009580078125,-9.811796264648438,1377.2533827916486,0.0010468210093677044,-0.00046706790453754365,0.0015286868438124657,1377.2583487916272
2025-10-01 14:39:07.243116,0.370138398706913,-0.000686277180138859,-9.803016085624696,1377.3874877916533,-0.0016047317907214166,-0.009492556612822228,-0.002494422197341919,1377.3874877916533,0.3650907897949219,-0.014819183349609376,-9.800569610595703,1377.3924547916395,-0.002301790053024888,-0.0009219117928296328,-0.00012464867904782295,1377.3874877916533
2025-10-01 14:39:07.375358,0.3702242796868086,-0.0004988555745512713,-9.803010238409042,1377.5166267916793,-0.004385082833468914,-0.01042842232156545,0.0015436649322509766,1377.5166267916793,0.3192860412597656,-0.02724334716796875,-9.803713073730469,1377.5215937916655,-0.00011453311890363693,0.005872378591448069,0.00038632191717624664,1377.5166267916793
2025-10-01 14:39:07.501995,0.3703403834626079,-0.0010068021704501006,-9.80300439119339,1377.6457657916471,0.00852165900170803,0.0004080468593747355,0.00573085606098175,1377.6457657916471,0.35745666503906254,-0.008382568359375,-9.789043579101563,1377.650731791684,-0.0004492662847042084,0.0008821414085105062,-0.0006509688682854176,1377.6457657916471
2025-10-01 14:39:07.628052,0.37013558473438024,-0.0005393763436222799,-9.803014916181565,1377.7749037916656,0.01082220945507288,-0.011136344263795764,0.009330986738204957,1377.7749037916656,0.38095779418945314,-0.011675720214843751,-9.79368392944336,1377.7699367916794,-0.0009758654050529003,-0.00046658251085318625,0.00047252653166651726,1377.7749037916656
2025-10-01 14:39:07.757725,0.3702763564512134,-0.0014522533657145688,-9.803008484244348,1377.9040427916334,0.00020315419882535935,-0.005433426930103452,0.012469187378883362,1377.9040427916334,0.3704795837402344,-0.006885681152343751,-9.790540466308594,1377.8990757916472,0.0018729381263256073,0.0010288951452821493,-0.0010412517003715038,1377.9040427916334
2025-10-01 14:39:07.894602,0.37056528199464084,-0.001146368470072048,-9.802997374534607,1378.0431147916825,0.00200990729033947,-0.015020015792688355,0.007368661165237427,1378.0431147916825,0.36000137329101567,-0.02245330810546875,-9.793983306884765,1378.0480827499996,0.00010282639414072037,-0.0006456459523178637,-0.0017553516663610935,1378.0431147916825
2025-10-01 14:39:08.015061,0.3700567569583655,-0.001311360164982034,-9.803017255067825,1378.1623207500088,0.0014706112816929818,-0.022339454137254508,0.000801653265953064,1378.1623207500088,0.3674858093261719,-0.018711090087890625,-9.795330505371094,1378.167287749995,-0.0018294532783329487,4.449859261512756e-06,-0.0033562304452061653,1378.1623207500088
2025-10-01 14:39:08.156557,0.3703005858510733,-0.0010930258320149733,-9.803010823130608,1378.3013937500073,-0.01224509283900261,0.02728855573805049,-0.0008536934852600098,1378.3013937500073,0.358055419921875,0.026195526123046875,-9.803862762451173,1378.2964267499628,-0.0007378784939646721,0.0027339679654687643,0.00029130280017852783,1378.3013937500073
2025-10-01 14:39:08.295148,0.3699059353396297,-0.001132223233144032,-9.803024271726608,1378.440465749998,-0.0016716824099421502,0.012957633167970927,-0.039907246828079224,1378.440465749998,0.37856277465820315,0.028889923095703127,-9.78560073852539,1378.4454327499843,0.0021766982972621918,-0.0015405828598886728,-0.002005369868129492,1378.440465749998
2025-10-01 14:39:08.419256,0.3699860056489706,-0.001057865593538736,-9.803021932840348,1378.569604749966,-0.017918098010122778,0.16571546372026205,-0.0009916877746582032,1378.569604749966,0.35206787109375004,0.1646575927734375,-9.804012451171875,1378.5646377499797,0.0007802769541740417,0.0021205535158514977,-0.002197009976953268,1378.569604749966
2025-10-01 14:39:08.563433,0.3788711787387729,0.0032349637799779884,-9.802680455446243,1378.708676750015,-0.008391631543636322,0.135975547330454,0.02995353162288666,1378.708676750015,0.3704795837402344,0.13921051025390627,-9.772727508544923,1378.7037107499782,-0.0020239059813320637,0.011542994529008865,-0.0001858980394899845,1378.708676750015
2025-10-01 14:39:08.687626,0.3962524658069015,0.011980329315410928,-9.80198580622673,1378.8378157499828,0.11029412850737572,0.09295146047137678,-0.03405886173248291,1378.8378157499828,0.506546630859375,0.10493179321289063,-9.836045837402343,1378.8328487499966,-0.003761457744985819,-0.005941500887274742,0.001705775735899806,1378.8378157499828
2025-10-01 14:39:08.821388,0.3936292221397162,0.01211980824940838,-9.802094564437867,1378.9669547500089,-0.1105677416548133,-0.21449896663427354,-0.15520147562026979,1378.9669547500089,0.3227288818359375,-0.26809249877929686,-9.787546691894532,1378.971921749995,0.007092038635164499,0.01690322905778885,0.006015744060277939,1378.9669547500089
2025-10-01 14:39:08.953385,0.3824195250123739,0.007690346533781849,-9.80254187643528,1379.0960925416439,-0.08498800043016673,-0.13522513029165567,-0.02647034525871277,1379.0960925416439,0.30731094360351563,-0.09834548950195313,-9.764344940185547,1379.10105954163,-0.0007811207324266434,-0.00014650714001618326,-0.0008398257195949554,1379.0960925416439
2025-10-01 14:39:09.086896,0.3746651668846607,0.009121481686597691,-9.80283833026886,1379.2351655416423,0.0160223576053977,-0.006726462726364844,0.04103868305683136,1379.2351655416423,0.3906875610351563,0.00239501953125,-9.761800231933595,1379.2301985416561,0.0011577163822948933,-0.014442711137235165,-0.00039475085213780403,1379.2351655416423
2025-10-01 14:39:09.222387,0.3680943217501044,0.006851557167246938,-9.803087421655656,1379.3643045416684,-0.026804111637175086,0.007219178010709584,0.018536843061447143,1379.3643045416684,0.34757720947265625,0.026345214843750003,-9.776769104003908,1379.3692715416546,0.0007623420096933842,0.0005671756807714701,0.0003948458470404148,1379.3643045416684
2025-10-01 14:39:09.347726,0.3759920828416944,0.003979727748956066,-9.802793891429902,1379.4934425416286,0.016791193373501302,-0.032270897389389576,0.02347774028778076,1379.4934425416286,0.38080810546875005,-0.000449066162109375,-9.781259765625,1379.498409541673,0.0010664449073374271,0.004099596291780472,-0.0006866487674415112,1379.4934425416286
2025-10-01 14:39:09.486269,0.3808232716843486,0.00189035956733278,-9.802609119415283,1379.632515541627,-0.002410039566457272,-0.14409463467076422,0.015358296632766725,1379.632515541627,0.3784130859375,-0.14220428466796875,-9.787247314453126,1379.6275485416409,0.00020789727568626404,-0.000724275188986212,-0.0021217651665210724,1379.632515541627
2025-10-01 14:39:09.623155,0.37700379732996225,0.0007959241794742412,-9.802753545641899,1379.7715875416761,0.022066332064568997,0.1348220561351627,-0.006648284196853638,1379.7715875416761,0.3990701293945313,0.13561798095703126,-9.809401245117188,1379.7666205416317,0.0016243215650320053,-0.008534884080290794,-0.002419362310320139,1379.7715875416761
2025-10-01 14:39:09.757005,0.373613070063293,-0.002444708872935735,-9.802884523272516,1379.900726541644,0.013931064382195473,0.1212975468300283,0.006354753971099854,1379.900726541644,0.3745211791992188,0.17079483032226564,-9.760303344726562,1379.9056935416302,0.002009871881455183,-0.003791309427469969,0.0017578215338289738,1379.900726541644
2025-10-01 14:39:09.912621,0.3712386254221201,-0.0023800257628317925,-9.802971646785737,1380.0596657916321,0.014808548726141454,0.17212704531848433,0.006744178533554078,1380.0596657916321,0.3860472106933594,0.16974700927734376,-9.796228637695313,1380.054698791646,-0.008328023366630077,-0.002158301416784525,-8.9217908680439e-05,1380.0596657916321
2025-10-01 14:39:10.040307,0.38168197184801106,0.0010557189973042114,-9.802574036121369,1380.1888047916582,-0.019285505935549736,-0.3026784870028496,-0.006679859161376953,1380.1888047916582,0.36239639282226566,-0.3016227722167969,-9.809251556396484,1380.183837791672,0.0008225296624004841,0.01361799705773592,-0.0007963860407471657,1380.1888047916582
2025-10-01 14:39:10.169651,0.39354604549705985,0.0029223493044264618,-9.802104504704475,1380.308008791646,0.005973259694874287,-0.20155927939340473,-0.05340262055397034,1380.308008791646,0.4105961608886719,-0.21869522094726562,-9.796228637695313,1380.3129757916322,0.0003078524023294449,0.010086467489600182,0.0027334897313266993,1380.308008791646
2025-10-01 14:39:10.298392,0.3936902889981866,0.0019382670499908273,-9.80210041165352,1380.4470817916445,0.004481854252517224,-0.07094476087018847,-0.011046559810638429,1380.4470817916445,0.39817199707031253,-0.06900650024414062,-9.813143463134766,1380.4421147916582,2.3117288947105408e-05,-0.005122665781527758,0.004316715523600578,1380.4470817916445
2025-10-01 14:39:10.431270,0.3926882589608431,0.002029070340504404,-9.802139003276826,1380.5762207916705,-0.005144124515354634,-0.29137737231329086,0.0042626202106475835,1380.5762207916705,0.3887416076660156,-0.26734405517578125,-9.785151672363282,1380.581186791649,-0.0010506757535040379,-0.0020808489061892033,-0.0003658062778413296,1380.5762207916705
2025-10-01 14:39:10.558607,0.39500346399843694,0.0019899519538739696,-9.802048371434212,1380.7053587916307,0.008108407035470009,0.026750280708074572,-0.006009768247604371,1380.7053587916307,0.40311172485351565,0.028740234375,-9.80805404663086,1380.7003917916445,-0.0028151937294751406,0.0034251913893967867,7.00848177075386e-05,1380.7053587916307
2025-10-01 14:39:10.683055,0.3960640392825008,0.0019560693662788254,-9.802002763152123,1380.8344977916568,-0.009867139868438244,0.06959514127112926,-0.0006630742549896241,1380.8344977916568,0.38619689941406254,0.07155120849609375,-9.802665252685548,1380.8295307916705,0.001163835171610117,0.0010925284586846828,-0.0019965283572673798,1380.8344977916568
2025-10-01 14:39:10.816050,0.39537465255707505,0.0026679942815098913,-9.802030245065689,1380.9636367916828,0.0075874201208353045,0.017839359312783926,0.00864452362060547,1380.9636367916828,0.4029620361328125,0.020507354736328125,-9.793384552001953,1380.9586697916384,-0.0006884424947202206,-0.000318281032377854,-0.0016643404960632324,1380.9636367916828
2025-10-01 14:39:10.941989,0.3944037954881788,0.002710447122808546,-9.8020670825243,1381.092775499972,0.0037681284919381143,-0.06947161884047091,0.0011992639303207398,1381.092775499972,0.39817199707031253,-0.06676116943359375,-9.80086898803711,1381.0878084999858,0.001509618479758501,-0.0007106534903869033,-0.0009331577457487583,1381.092775499972
2025-10-01 14:39:11.072705,0.3940249690040946,0.002602592831826769,-9.802084624171258,1381.221914499998,0.003997375890612603,-0.042270106673240666,-0.0028265440464019776,1381.221914499998,0.3956272888183594,-0.02844085693359375,-9.81044906616211,1381.2169475000119,-0.0013138651847839355,0.001004422316327691,0.00047991517931222916,1381.221914499998
2025-10-01 14:39:11.224382,0.3935555837675929,0.0029555710824206473,-9.802099242210389,1381.3709204999614,0.013747315630316736,0.01171392468851991,0.007071037888526917,1381.3709204999614,0.40730300903320316,0.01466949462890625,-9.795031127929688,1381.3659534999751,0.0020228722132742405,0.0009822738356888294,0.0005757356993854046,1381.3709204999614
2025-10-01 14:39:11.349289,0.39397223442792895,0.004291103402792942,-9.802087547779085,1381.490125500015,0.006594891808927059,-0.03692324822768569,0.008251590728759766,1381.490125500015,0.3941304016113281,-0.024399261474609375,-9.8052099609375,1381.4950925000012,-0.003018534742295742,-0.0012753752525895834,0.0014532243367284536,1381.490125500015
2025-10-01 14:39:11.482031,0.3938176486641169,0.002986023998237215,-9.802088717222214,1381.6291985000134,0.004803304933011532,-0.020499609459657224,-0.013596530556678773,1381.6291985000134,0.3986210632324219,-0.017513580322265625,-9.81568817138672,1381.624231499969,0.0005408725701272488,-0.0007023088401183486,0.0007487498223781586,1381.6291985000134
2025-10-01 14:39:11.607615,0.39375475455075504,0.002185628968582023,-9.802093979716302,1381.7583364999737,-0.001720031574368477,-0.016106676282361152,0.010206899642944337,1381.7583364999737,0.3920347595214844,-0.013921051025390626,-9.791887664794922,1381.7533694999875,0.0005428236909210682,-0.0015056438278406858,-0.00029678409919142723,1381.7583364999737
2025-10-01 14:39:11.749450,0.3932219270244241,0.0025385549711063504,-9.80211269080639,1381.8874754999997,0.004800271689891816,-0.013765213591977955,0.01456892251968384,1381.8874754999997,0.39547760009765626,-0.01916015625,-9.789043579101563,1381.892442499986,0.001643371768295765,-0.003135505598038435,0.0013435250148177147,1381.8874754999997
2025-10-01 14:39:11.871589,0.39287292134016755,0.0020507388711848763,-9.802131401896478,1382.0166144999675,0.010837594941258431,-0.01462459555012174,0.009643228054046632,1382.0166144999675,0.40071670532226566,-0.02005828857421875,-9.800270233154297,1382.021581500012,0.0005497857928276062,-0.00035671706427820027,0.0018706326372921467,1382.0166144999675
2025-10-01 14:39:11.995555,0.392929310426116,0.002243322685972089,-9.802127893567086,1382.1457527916646,0.007338292188942433,-0.02065503576071933,-0.014908061027526856,1382.1457527916646,0.4002676391601563,-0.018411712646484377,-9.817035369873047,1382.1407857916784,-0.00025878287851810455,0.001872657798230648,-0.002283060923218727,1382.1457527916646
2025-10-01 14:39:12.138603,0.393170983158052,0.0016400993084243966,-9.802116199135781,1382.2748917916324,-0.0008368827402591705,-0.02214745076140389,-0.010426754951477052,1382.2748917916324,0.3897894287109375,-0.015118560791015626,-9.799671478271485,1382.2798587916768,0.002406002953648567,0.0029378337785601616,0.0005932282656431198,1382.2748917916324
2025-10-01 14:39:12.259245,0.39313480351120234,0.0026566535953315906,-9.802120292186737,1382.4040307916584,0.005186918824911118,-0.015380193998571486,0.011279278993606569,1382.4040307916584,0.39592666625976564,-0.01526824951171875,-9.801168365478516,1382.4089977916447,-0.0015863855369389057,0.0005299834301695228,-0.0011985693126916885,1382.4040307916584
2025-10-01 14:39:12.378414,0.39349393218755724,0.0029654354037484155,-9.802104504704475,1382.5232357916539,0.0006364328786730766,-0.022275276377331468,-0.010889269709587097,1382.5232357916539,0.39278320312500004,-0.0149688720703125,-9.79413299560547,1382.5282017916325,-0.0008739037439227104,0.0015970200765877962,0.0006819346453994513,1382.5232357916539
2025-10-01 14:39:12.512478,0.3935804709792137,0.002294337786734104,-9.802099826931954,1382.6623077916447,0.009531180784106256,-0.016963830131571742,-0.00310837984085083,1382.6623077916447,0.40311172485351565,-0.01466949462890625,-9.8052099609375,1382.6573407916585,-0.0031987337861210108,0.0009685451514087617,0.0007675439119338989,1382.6623077916447
2025-10-01 14:39:12.636195,0.39394935719668867,0.002289647309080465,-9.802085793614388,1382.7815127916401,0.004072951152920723,-0.008576573721366004,0.004211164712905884,1382.7815127916401,0.39113662719726566,-0.010328521728515625,-9.797875213623048,1382.776545791654,-0.0008084774017333984,0.00010651175398379564,-0.00040955934673547745,1382.7815127916401
2025-10-01 14:39:12.776296,0.39398780263960365,0.001661086901149247,-9.802087547779085,1382.920584791631,0.002388039417564869,-0.01438463015947491,0.0004677772521972656,1382.920584791631,0.396375732421875,-0.012723541259765625,-9.801617431640626,1382.9156177916448,-0.0008166772313416004,0.0003028864739462733,-0.0028936080634593964,1382.920584791631
2025-10-01 14:39:12.903752,0.39398831427097325,0.0016236111881153194,-9.802085793614388,1383.0497232499765,-0.003300753235816956,-0.01030555884470232,0.004509372711181641,1383.0497232499765,0.3906875610351563,-0.00868194580078125,-9.797575836181641,1383.0447567916708,0.0015035546384751797,0.0027731668669730425,-0.0009436057880520821,1383.0497232499765
2025-10-01 14:39:13.055851,0.3937758045271039,0.0007822588824637933,-9.802091056108475,1383.198729249998,0.006641413718461991,-0.016050505324965342,-0.007307265400886536,1383.198729249998,0.39472915649414064,-0.008532257080078126,-9.800120544433595,1383.2036962499842,-0.0031412511598318815,-0.001867590006440878,-0.0008284421637654305,1383.198729249998
2025-10-01 14:39:13.172734,0.39433527342975144,0.0008812379965820583,-9.802072929739953,1383.3179342499934,-0.006192311011254788,-0.0405487457709387,-0.005084738731384278,1383.3179342499934,0.3879931640625,-0.03338058471679688,-9.797276458740235,1383.3229012499796,-0.0009804279543459415,0.0005387802957557142,-0.000599998515099287,1383.3179342499934
2025-10-01 14:39:13.291599,0.3941582124307752,0.0002974941376123752,-9.80207702279091,1383.4371392499888,0.0019181060045957567,-0.0038900266643031502,-0.009867761135101318,1383.4371392499888,0.4025129699707031,-0.0053887939453125,-9.81673599243164,1383.442106249975,0.0003406335599720478,-0.0012009964557364583,0.00039992528036236763,1383.4371392499888
2025-10-01 14:39:13.449354,0.39478719010949137,0.0013223132732673548,-9.80205480337143,1383.5960792499827,0.00278608862310648,-0.0008732436850550585,-0.002707260847091675,1383.5960792499827,0.4032614135742188,-0.008232879638671876,-9.791438598632814,1383.601046249969,-0.0008646179921925068,-0.0015697510680183768,-0.0009163245558738708,1383.5960792499827
2025-10-01 14:39:13.588417,0.39451653711497786,0.0014696963694586884,-9.802064158916474,1383.7252182500088,0.0027573276311159134,-0.028563358385581526,-0.011079304218292237,1383.7252182500088,0.38993911743164067,-0.018711090087890625,-9.80236587524414,1383.730185249995,0.0013219774700701237,-0.0007466842653229833,0.0013106968253850937,1383.7252182500088
2025-10-01 14:39:13.721283,0.3942114586383105,0.0013833236010395923,-9.802076438069344,1383.8642902499996,0.0011164892837405205,-0.001383327883668244,0.0027037525177001955,1383.8642902499996,0.39532791137695317,0.0,-9.799372100830078,1383.8593232500134,0.0005609276704490185,0.0012263567186892033,0.0023409125860780478,1383.8642902499996
2025-10-01 14:39:13.864660,0.39378709696233277,0.0013962972535227893,-9.802094564437867,1384.0132962499629,0.0012414735183119774,-0.01935894102556631,-0.0038650095462799076,1384.0132962499629,0.3950285339355469,-0.017962646484375,-9.805958404541016,1384.0083292499767,-0.0015568491071462631,-0.0032923701219260693,-0.0008981321007013321,1384.0132962499629
2025-10-01 14:39:13.990300,0.39310140129178767,0.0011392414622241633,-9.802124385237695,1384.1424353749608,-0.0030124855041503908,-0.011467766045825556,0.0012524735927581787,1384.1424353749608,0.39008880615234376,-0.010328521728515625,-9.80086898803711,1384.1374683749746,-0.0020534242503345013,0.00043448590440675616,0.0008836595807224512,1384.1424353749608
2025-10-01 14:39:14.112396,0.39329260524362325,0.0008337958929041634,-9.802111521363258,1384.2616403750144,-0.0014075709879398347,-0.008467918293317781,0.002292108535766602,1384.2616403750144,0.3918850708007813,-0.007634124755859375,-9.799821166992189,1384.25667337497,0.0014521097764372826,-0.0004199027025606483,-6.9052912294864655e-06,1384.2616403750144
2025-10-01 14:39:14.245455,0.39321856487542395,0.0003553197064320557,-9.802117953300476,1384.3907793749822,-0.005824119150638581,-0.01652169840177521,0.013372582197189332,1384.3907793749822,0.38739440917968754,-0.0161663818359375,-9.788744201660156,1384.385812374996,-0.0019756732508540154,6.75827031955123e-05,-0.0008051693439483643,1384.3907793749822
2025-10-01 14:39:14.385901,0.3935672051087022,0.00031869973397988363,-9.80210158109665,1384.5199173750007,-0.0031790580600500108,-0.012892552058910952,-0.0047543710470199585,1384.5199173750007,0.3920347595214844,-0.010777587890625,-9.81718505859375,1384.5248843749869,0.00026042060926556587,0.0005677978042513132,0.0028710041660815477,1384.5199173750007
2025-10-01 14:39:14.538594,0.39296322427690034,-0.0009150774723821087,-9.802126724123955,1384.668923374964,0.004759706631302834,-0.017047567513072865,0.0054484355449676515,1384.668923374964,0.3983216857910156,-0.0197589111328125,-9.799821166992189,1384.6738903750083,-0.0009636254981160164,-0.001722597749903798,-0.0012125903740525246,1384.668923374964
2025-10-01 14:39:14.669724,0.3932935554161668,-0.0009477847639209359,-9.80211386024952,1384.817930374993,0.0012859489023685456,-0.015667662306223067,-0.0018991756439208985,1384.817930374993,0.3945794677734375,-0.016615447998046876,-9.804012451171875,1384.8129633750068,0.0030534262768924236,0.0003121256304439157,-0.0028235958889126778,1384.817930374993
2025-10-01 14:39:14.796178,0.3936707373708487,-0.00125898989776033,-9.802096903324127,1384.9371353749884,0.00016025025397539138,-0.0071235748927574605,0.00616881251335144,1384.9371353749884,0.3909869384765625,-0.00987945556640625,-9.801617431640626,1384.942101374967,-0.003190702758729458,-0.0012456945842131972,-0.0013396460562944412,1384.9371353749884
2025-10-01 14:39:14.925086,0.3934196725487709,-0.0003022919843351701,-9.802109767198564,1385.0662736250088,0.0034051260352134707,-0.0214025725889951,-0.0025026082992553713,1385.0662736250088,0.4040098571777344,-0.020806732177734377,-9.790690155029298,1385.071240624995,-0.0002734852023422718,0.0019773077219724655,-0.00010866718366742134,1385.0662736250088
2025-10-01 14:39:15.054100,0.39443091195076707,-0.001346540817321511,-9.802068836688996,1385.1954126249766,0.0028429893404245377,-0.008832288907142357,0.0014980566501617432,1385.1954126249766,0.3972738647460938,-0.0101788330078125,-9.800569610595703,1385.1904456249904,0.0018255696631968021,-0.0017007035203278065,-0.0008937744423747063,1385.1954126249766
2025-10-01 14:39:15.181642,0.3945066333934665,-0.001102151756786043,-9.8020670825243,1385.3245516250026,0.011299634613096715,-0.01581267325440422,-0.0006010937690734863,1385.3245516250026,0.4014651489257813,-0.011675720214843751,-9.805509338378906,1385.3295176249812,0.00046932278200984,-0.0011726071825250983,0.00013498635962605476,1385.3245516250026
2025-10-01 14:39:15.336185,0.3951304216682911,-0.0011441017461038428,-9.802038431167603,1385.4636236249935,-0.00653853926807642,-0.015022282730787994,-0.0025721901655197145,1385.4636236249935,0.39517822265625,-0.0161663818359375,-9.804611206054688,1385.4586566250073,0.0008807126432657242,0.0019811196252703667,0.0021094356197863817,1385.4636236249935
2025-10-01 14:39:15.459137,0.3954687196388841,-0.001761044453160139,-9.802024982571602,1385.6026956249843,0.0034517210349440577,0.0002641553903231397,0.005198174715042115,1385.6026956249843,0.3932322692871094,-0.014819183349609376,-9.809401245117188,1385.6076626249705,-0.002421977696940303,0.0004350981907919049,-0.0007465993985533714,1385.6026956249843
2025-10-01 14:39:15.577018,0.39581582497805357,-0.0018414269661298022,-9.802013872861863,1385.7318346250104,-0.0039306445419788364,-0.012528690792387352,-0.002599672079086304,1385.7318346250104,0.3918850708007813,-0.0143701171875,-9.804611206054688,1385.726867624966,-0.0012153848074376583,-0.0003327552985865623,0.00066425371915102,1385.7318346250104
2025-10-01 14:39:15.702000,0.3957360470294953,-0.002177967345924117,-9.802013288140298,1385.8510396250058,-0.0037013605982065202,-0.009048682709690184,0.0041392439603805545,1385.8510396250058,0.3920347595214844,-0.011226654052734375,-9.797875213623048,1385.8460726249614,-0.0010770545341074467,-0.0007393223932012916,0.0011200900189578533,1385.8510396250058
2025-10-01 14:39:15.839298,0.3955660392343998,-0.0022021242266055197,-9.802018550634385,1385.9801786249736,-0.0012860585376620293,-0.012766745559638366,-0.005284128785133362,1385.9801786249736,0.39428009033203126,-0.0149688720703125,-9.807305603027345,1385.9752116249874,-0.0016930727288126945,-0.0020078078377991915,-0.0006301822140812874,1385.9801786249736
2025-10-01 14:39:15.964588,0.3958735296875239,-0.0021035236968600657,-9.802007440924646,1386.1093158749864,-0.00309036310762167,-0.013913166420534254,-0.01038582444190979,1386.1093158749864,0.3926335144042969,-0.011526031494140625,-9.794731750488282,1386.1142828749726,-0.0013975342735648155,0.0018824443686753511,0.0007551505696028471,1386.1093158749864
2025-10-01 14:39:16.092428,0.39619183748960496,-0.002242866586020682,-9.80199691593647,1386.2384548750124,0.001531129963696003,-0.01601915305713192,0.007264580726623535,1386.2384548750124,0.39772293090820315,-0.018262023925781252,-9.794731750488282,1386.233487874968,0.0004719020798802376,-0.001740727573633194,-0.0011749332770705223,1386.2384548750124
2025-10-01 14:39:16.211448,0.3964567894488573,-0.002494497286097612,-9.80198346734047,1386.3576598750078,-0.0038233481347560885,-0.015767524070106446,0.005457206368446351,1386.3576598750078,0.40969802856445314,-0.015867004394531252,-9.794432373046876,1386.362626874994,-0.0022862525656819344,0.00028596684569492936,-0.0006785872392356396,1386.3576598750078
2025-10-01 14:39:16.329752,0.3990676808729768,-0.0019009863393148409,-9.801881141066552,1386.4768648750032,-0.011224168986082077,-0.12937602343037724,-0.008419990539550781,1386.4768648750032,0.4028123474121094,-0.16316070556640624,-9.805808715820312,1386.4818318749894,0.0007776031270623207,0.007257435470819473,0.00020905258134007454,1386.4768648750032
2025-10-01 14:39:16.451215,0.521627952195704,0.02152497582603246,-9.796099414229394,1386.5960698749986,-0.05295249458402396,-0.22614945245906712,-1.2988291490077972,1386.5960698749986,0.6445596313476563,-0.04894821166992188,-11.51570297241211,1386.6010368749849,-0.07471754401922226,0.47837182879447937,-0.05865000933408737,1386.5960698749986
2025-10-01 14:39:16.575149,3.1658731734752656,0.06394495851360261,-9.284896060824394,1386.715274874994,-0.7211561098694802,0.703958206102252,-1.2774412035942078,1386.715274874994,2.985092468261719,1.1726614379882814,-10.125244445800782,1386.7202418749803,0.23324835300445557,4.157748222351074,-0.8214134573936462,1386.715274874994
2025-10-01 14:39:16.705714,7.826409857869149,0.0694115341315046,-5.914270352125168,1386.854346874985,-2.8949149543046953,0.24972480470314623,-0.08330762028694154,1386.854346874985,4.931494903564453,0.31913635253906253,-5.99757797241211,1386.8493798749987,0.5323086380958557,3.2410547733306885,-0.25035330653190613,1386.854346874985
2025-10-01 14:39:16.837085,9.24395853459835,0.06917266166768968,-3.2833767727017404,1386.983485875011,0.725610226392746,-1.0925944907963276,0.24544360131025317,1386.983485875011,9.969568176269531,-1.0234217834472656,-3.037932586669922,1386.9785188749665,-0.0833081305027008,1.8155337572097778,-0.014542721211910248,1386.983485875011
2025-10-01 14:39:16.969603,9.697890164852144,0.07720614211633801,-1.4768422208726406,1387.112624624977,0.2317105382680893,-0.04756769319064916,1.1656390781700612,1387.112624624977,9.929601287841797,0.02963836669921875,-0.3112028503417969,1387.1076576249907,-0.030716169625520706,1.005767583847046,0.013771481812000275,1387.112624624977
2025-10-01 14:39:17.093630,9.724320749044418,0.08119577044621111,-1.291166372895241,1387.2417626249953,-0.041854369640350345,-0.09601488984189928,-0.5215635962784291,1387.2417626249953,9.682465209960938,-0.014819183349609376,-1.8127304077148438,1387.236795625009,-0.6194724440574646,-0.2722472846508026,0.06967238336801529,1387.2417626249953
2025-10-01 14:39:17.227574,9.570694513320923,0.09073902938514948,-2.151664993911982,1387.3709016249632,0.07614419639110566,0.414161062091589,0.31663155153393746,1387.3709016249632,9.646839294433594,0.5049000549316407,-1.8350340270996095,1387.365934624977,-0.7331214547157288,-0.6142776608467102,0.16169551014900208,1387.3709016249632
2025-10-01 14:39:17.355596,9.69240664601326,0.09730104887858033,-1.5112576165795326,1387.5000406249892,-0.01607750415802002,0.024246329376474023,0.16390900298953057,1387.5000406249892,9.557475128173829,0.13651611328125002,-0.9876461791992188,1387.5050066249678,0.0005037738010287285,0.7053269147872925,-0.001890112180262804,1387.5000406249892
2025-10-01 14:39:17.480046,9.749444480538369,0.09891108884476126,-1.0838267371058465,1387.6291786250076,-0.029855298399925234,-0.025264146896079184,1.0664629916846753,1387.6291786250076,9.719588012695313,0.0736468505859375,-0.0173638916015625,1387.6242116249632,0.000316728837788105,-0.09695059061050415,-0.002174469642341137,1387.6291786250076
2025-10-01 14:39:17.609610,9.74885742008686,0.09959889499470592,-1.0890104399621487,1387.7583176249755,-0.017445167899131777,-0.050650838641449814,-0.13185105845332146,1387.7583176249755,9.73141342163086,0.04894821166992188,-1.2208612060546875,1387.7533506249893,-0.004363801330327988,0.1696912795305252,-0.0005519040860235691,1387.7583176249755
2025-10-01 14:39:17.750442,9.746523211598397,0.09979897026903928,-1.1097089986503126,1387.8973896249663,-0.04310041129589081,-0.032588871717453005,-0.0831604166328907,1387.8973896249663,9.649533691406251,0.1454974365234375,-1.0891351318359375,1387.9023566250107,-0.003885776037350297,0.026153719052672386,0.0060979705303907394,1387.8973896249663
2025-10-01 14:39:17.887328,9.747220784425735,0.09958201115950943,-1.103574611619115,1388.0265286249924,-0.0798741352558136,0.03977816954255104,0.03030611872673035,1388.0265286249924,9.689500579833984,0.09235794067382813,-1.093176727294922,1388.0314956249786,0.002729348838329315,1.825497020035982e-05,0.00181196304038167,1388.0265286249924
2025-10-01 14:39:18.020902,9.747366380095482,0.09963356715627016,-1.1022846427559854,1388.165601374989,-0.0482857221364975,-0.01101780795492232,0.04233851909637451,1388.165601374989,9.699080657958985,0.08861572265625,-1.0599458312988281,1388.1606353750103,0.0017286250367760658,0.002115182112902403,0.00035487907007336617,1388.165601374989
2025-10-01 14:39:18.162347,9.747445902228355,0.10034569406881928,-1.1015091557800771,1388.3046743749874,-0.07066944837570191,-0.00200011320412159,0.0194093207269907,1388.3046743749874,9.676777038574219,0.09834548950195313,-1.0820997619628907,1388.2997073750012,-0.0009143594652414322,0.005146436858922243,0.0030828085727989674,1388.3046743749874
2025-10-01 14:39:18.294093,9.747548813223839,0.10047825227491558,-1.1005926778167487,1388.4437463749782,-0.047270645499229436,-0.02024515279568732,0.03944882512092591,1388.4437463749782,9.70027816772461,0.080233154296875,-1.061143341064453,1388.438779374992,-0.000612869393080473,0.002243724884465337,-7.684249430894852e-05,1388.4437463749782
2025-10-01 14:39:18.420123,9.74766926586628,0.10032726620323956,-1.09954968072474,1388.5728853750043,-0.04948557078838348,-0.0060233904328197245,0.04813530251383782,1388.5728853750043,9.698182525634767,0.09430389404296875,-1.05141357421875,1388.567918375018,-0.0009381105192005634,0.002648524474352598,-0.0007587098516523838,1388.5728853750043
2025-10-01 14:39:18.564257,9.74783298790455,0.1005225266609341,-1.0980642686784268,1388.702024374972,-0.05833240807056427,-0.017145854411646726,0.05488313555717469,1388.702024374972,9.68021987915039,0.08966354370117188,-1.0401869201660157,1388.7069913750165,8.19922424852848e-05,0.003359410911798477,-0.000641942024230957,1388.702024374972
2025-10-01 14:39:18.681667,9.748041148781777,0.10013867522589863,-1.0962476849555969,1388.8311623749905,-0.0633311927318573,-0.012121789678931237,0.0578570294380188,1388.8311623749905,9.682764587402344,0.09340576171875001,-1.0383906555175781,1388.8261953750043,-0.00029537733644247055,0.0019061239436268806,-0.0001548496074974537,1388.8311623749905
2025-10-01 14:39:18.810077,9.748183236122133,0.100640302374959,-1.0949449253082275,1388.9603013750166,-0.06392176151275634,-0.02010787113569677,0.060745553970336916,1388.9603013750166,9.684261474609375,0.08053253173828126,-1.0341993713378907,1388.9553343749722,-0.0008729677647352219,0.0011973236687481403,-0.00011020060628652573,1388.9603013750166
2025-10-01 14:39:18.939678,9.748327077627183,0.10037377897650004,-1.0936913553625345,1389.0795060416567,-0.060622762441635135,-0.013554320968687535,0.05604907035827637,1389.0795060416567,9.693392486572266,0.08412506103515625,-1.0337503051757813,1389.084473041643,0.0004463554359972477,0.0020790521521121264,-0.0009069032967090607,1389.0795060416567
2025-10-01 14:39:19.069353,9.748425895571708,0.09987109201960266,-1.0928524991869928,1389.2185780416476,-0.05638060748577118,-0.012901872200891376,0.05595902323722839,1389.2185780416476,9.692045288085938,0.08696914672851563,-1.036893768310547,1389.213612041669,-0.00018982449546456337,-0.0030183708295226097,0.0019588330760598183,1389.2185780416476
2025-10-01 14:39:19.189715,9.748598388433457,0.09905102002434434,-1.0913851404190065,1389.337783041643,-0.053709014654159545,-0.013578696548938752,0.0582335901260376,1389.337783041643,9.694889373779297,0.08547225952148438,-1.033151550292969,1389.3328160416568,-9.137950837612152e-05,-0.0003836618852801621,0.0014180131256580353,1389.337783041643
2025-10-01 14:39:19.309455,9.748711824417114,0.09918475680984558,-1.0903680903464557,1389.4569880416384,-0.05711443305015564,-0.00443183314986527,0.0636526434123516,1389.4569880416384,9.687105560302735,0.08711883544921875,-1.0279124450683594,1389.4619550416828,4.288647323846817e-05,0.0007757010753266513,0.0014979310799390078,1389.4569880416384
2025-10-01 14:39:19.440825,9.748844556212426,0.09917120771482588,-1.0891723347455264,1389.5861270416644,-0.05545206964015961,-0.005017084619030356,0.05377567291259766,1389.5861270416644,9.681716766357422,0.0963995361328125,-1.026265869140625,1389.5910940416506,0.0012211473658680916,-0.000761969480663538,-0.0008119572885334492,1389.5861270416644
2025-10-01 14:39:19.570458,9.74900886297226,0.0992937982454896,-1.0876988364011049,1389.7152660416323,-0.06803937077522278,-0.0063370844163000584,0.05349953815340996,1389.7152660416323,9.685758361816406,0.08532257080078126,-1.0187814331054688,1389.720232041669,-0.0030536160338670015,0.0009126159129664302,-0.0003942074254155159,1389.7152660416323
2025-10-01 14:39:19.695076,9.74906791985035,0.09927462120540441,-1.087164985612035,1389.8444040416507,-0.0628604918718338,-0.014101775670424104,0.05865342020988465,1389.8444040416507,9.686207427978516,0.08517288208007813,-1.028511199951172,1389.8394370416645,0.0006529097445309162,0.0005781038198620081,-0.0023281611502170563,1389.8444040416507
2025-10-01 14:39:19.827524,9.74917375445366,0.10010247730650008,-1.0861508591473104,1389.9735430416767,-0.04979254961013794,-0.011636543869972229,0.04701146766543388,1389.9735430416767,9.694140930175783,0.09026229858398438,-1.036893768310547,1389.978510041663,-0.00043511297553777695,-0.0017504608258605003,0.00046703824773430824,1389.9735430416767
2025-10-01 14:39:19.953615,9.749277834892274,0.10018624780699611,-1.0851896499842406,1390.102682124998,-0.0518443375825882,-0.016360436305403712,0.05428328432142735,1390.102682124998,9.69743408203125,0.08382568359375,-1.030906219482422,1390.0977151250117,-0.00014982232823967934,-0.0006010064389556646,-0.000586219597607851,1390.102682124998
2025-10-01 14:39:20.085193,9.74936437368393,0.10051446846686304,-1.08438492693007,1390.2318201250164,-0.056420953273773194,-0.004114859243854881,0.04808984041213989,1390.2318201250164,9.685608673095704,0.09355545043945312,-1.0304571533203126,1390.2367871250026,0.00039583398029208183,0.00042001635301858187,0.0014066060539335012,1390.2318201250164
2025-10-01 14:39:20.211364,9.749465530514717,0.1005480077303946,-1.0834721765667201,1390.3609591249842,-0.06415623486042023,-0.015524924006313086,0.04837518453598023,1390.3609591249842,9.69878128051758,0.08726852416992188,-1.047821044921875,1390.3659261249704,-0.00016979966312646866,0.0009019573917612433,-0.000344984233379364,1390.3609591249842
2025-10-01 14:39:20.341020,9.74961404979229,0.10037217099219561,-1.0821633504331112,1390.4900981250103,-0.0620582538843155,-0.01519941681995988,0.0514062349498272,1390.4900981250103,9.687554626464845,0.08517288208007813,-1.0307565307617188,1390.4851311249658,0.0003197481855750084,0.00013175420463085175,-0.00036000320687890053,1390.4900981250103
2025-10-01 14:39:20.464964,9.749680708050729,0.10025139858014882,-1.0815721238404512,1390.6093031250057,-0.06347211062908173,-0.0074443551991134884,0.04527718350291252,1390.6093031250057,9.699679412841798,0.08831634521484376,-1.0341993713378907,1390.6142691249843,-0.001115588005632162,0.0007188066374510527,-0.0009085242636501789,1390.6093031250057
2025-10-01 14:39:20.600358,9.749811100959779,0.09995450620539487,-1.0804077239334584,1390.7483751249965,-0.05297635853290558,-0.00984203338623047,0.0423163727670908,1390.7483751249965,9.696835327148438,0.09011260986328125,-1.038091278076172,1390.7434081250103,0.001930643804371357,0.0006746841827407479,-0.001829145010560751,1390.7483751249965
2025-10-01 14:39:20.744046,9.749964298009873,0.09990796602331102,-1.079041448906064,1390.897381125018,-0.058667453527450564,-0.0120407600607723,0.05367393136024475,1390.897381125018,9.691296844482423,0.08786727905273438,-1.0253677368164062,1390.8924141249736,0.0005988399498164654,-0.001874501584097743,-0.0012478968128561974,1390.897381125018
2025-10-01 14:39:20.870670,9.750060192346574,0.10006149197928609,-1.0781423664093017,1391.0165861250134,-0.059663234353065496,-0.010397829506546259,0.0445419692248106,1391.0165861250134,9.700427856445312,0.08876541137695312,-1.0258168029785157,1391.0215531249996,-0.0001080092042684555,8.402846287935972e-05,-0.003255540505051613,1391.0165861250134
