timestamp,gravity_x,gravity_y,gravity_z,gravity_time,lin_acc_x,lin_acc_y,lin_acc_z,lin_acc_time,acc_x,acc_y,acc_z,acc_time,gyro_x,gyro_y,gyro_z,gyro_time
2025-10-02 14:08:58.190921,0.3754053512960673,-0.060468144700862474,-9.802630169391632,100.5320962916594,-0.001632542610168457,-0.002850193292833865,0.0025072860717773437,100.5320962916594,0.3737727355957031,-0.06331832885742188,-9.800120544433595,100.52464929164853,0.002046518959105015,0.0007514293538406491,-0.0004175109788775444,100.5320962916594
2025-10-02 14:08:58.319628,0.3747779816016555,-0.060366928484290844,-9.802655312418938,100.65127129165921,0.00558109425008297,-0.0007060832669958472,-0.0006104493141174317,100.65127129165921,0.38035903930664067,-0.061072998046875,-9.80326400756836,100.64382429164834,0.0006707264110445976,0.0019543105736374855,0.0014149835333228111,100.65127129165921
2025-10-02 14:08:58.450496,0.3749327500909567,-0.05974985080305487,-9.802649465203286,100.78037829161622,-0.00011222999542951585,-0.0032690960448235277,0.004625732302665711,100.78037829161622,0.3746708679199219,-0.056582336425781254,-9.793833618164063,100.78286229161313,-0.0012360219843685627,-4.483410157263279e-05,-0.0037244432605803013,100.78037829161622
2025-10-02 14:08:58.666264,0.3747169512882829,-0.060410376037471,-9.802655312418938,101.00879729166627,0.002498624883592129,-0.00650047754868865,0.0040310704708099365,101.00879729166627,0.3730242919921875,-0.05882766723632813,-9.80131805419922,101.01128129166318,0.0015397127717733383,0.0009249499998986721,0.00018221652135252953,101.00879729166627
2025-10-02 14:08:58.793165,0.3739304276928306,-0.06078877311665565,-9.802681040167808,101.12797229166608,0.0013391585648059845,0.0024101766105741264,0.014836724996566773,101.12797229166608,0.3722758483886719,-0.054935760498046875,-9.803413696289063,101.130456291663,0.001189433503895998,-0.0020514000207185745,0.001299364259466529,101.12797229166608
2025-10-02 14:08:58.914550,0.37412747886031866,-0.06125077167525888,-9.802674608230591,101.25707929162309,-0.0030490671470761303,0.001824340419843793,0.0028511023521423343,101.25707929162309,0.3710783386230469,-0.05942642211914063,-9.799821166992189,101.24963129166281,0.0001248926855623722,0.000701225595548749,-0.002298758365213871,101.25707929162309
2025-10-02 14:08:59.024918,0.3738243372738362,-0.06111984429415316,-9.802686887383462,101.36632329161512,0.008181314505636693,-0.005940711717121304,0.008103071451187134,101.36632329161512,0.3811074829101563,-0.05822891235351563,-9.797725524902344,101.36880629166262,0.0008743153885006905,-0.0007217171369120479,-0.00031506549566984177,101.36632329161512
2025-10-02 14:08:59.183899,0.3737762073799968,-0.060932445600628854,-9.802687472105026,101.4954293332994,-0.0006022266671061517,-0.0010386847704648972,0.00900354266166687,101.4954293332994,0.37317398071289065,-0.06197113037109375,-9.79368392944336,101.48798133328091,-3.6036595702171326e-05,-0.0008913060883060098,0.00041461968794465065,101.4954293332994
2025-10-02 14:08:59.310855,0.37301435172557834,-0.06100588754285127,-9.802716123461725,101.65432933327975,0.004949631504714489,0.008465151144191623,0.011726590991020204,101.65432933327975,0.3779640197753906,-0.05254074096679688,-9.790989532470704,101.64688233332708,-0.0022969264537096024,0.002393269445747137,0.0015824399888515472,101.65432933327975
2025-10-02 14:08:59.440772,0.37286287229508164,-0.061083020539954305,-9.80272021651268,101.78343633329496,0.0006104127690196038,0.004650381971150637,0.001553020477294922,101.78343633329496,0.3734733581542969,-0.05643264770507813,-9.801168365478516,101.77598833333468,0.0005540391430258751,9.59785538725555e-05,0.0007573273032903671,101.78343633329496
2025-10-02 14:08:59.579374,0.3731292495131493,-0.060999286584556105,-9.802712615132332,101.92247333331034,0.0022900985553860665,-0.0027681038668379188,0.004836816787719727,101.92247333331034,0.3754193115234375,-0.06376739501953126,-9.797875213623048,101.91502633329947,0.0010008839890360832,-0.0012475699186325073,-0.0013383729383349419,101.92247333331034
2025-10-02 14:08:59.736523,0.3733081012219191,-0.06098765153903515,-9.802704429030419,102.0714423332829,-0.001631007716059685,0.006201575193554163,0.009170773029327393,102.0714423332829,0.3673361206054688,-0.0580792236328125,-9.799222412109376,102.07392633327981,0.0006578871980309486,0.0003567292005755007,-0.0007033073343336582,102.0714423332829
2025-10-02 14:08:59.869095,0.3728815833851695,-0.060773849012330176,-9.802721970677377,102.2104803333059,-0.006892697811126709,0.00628716838080436,0.0014045011997222902,102.2104803333059,0.37018020629882814,-0.06182144165039063,-9.801018676757813,102.2129643333028,-0.002412020228803158,-0.0009690094157122076,-0.00027692224830389023,102.2104803333059
2025-10-02 14:09:00.015366,0.3724562715366483,-0.061257185339927675,-9.802734834551812,102.35944933333667,-0.0042220551520586016,-0.0004145584534853697,0.011896160244941712,102.35944933333667,0.36823425292968753,-0.061671752929687504,-9.79083984375,102.35200133331819,-0.0017468766309320927,0.0007608857122249901,0.0016008890233933926,102.35944933333667
2025-10-02 14:09:00.196611,0.37221503734588623,-0.061326959067955614,-9.80274594426155,102.51834966661409,-0.003232304267585278,-0.004386398456990719,-0.0018664312362670899,102.51834966661409,0.3706292724609375,-0.06571334838867188,-9.800719299316407,102.51090266666142,0.0003760792315006256,0.0010839810129255056,-0.0013607204891741276,102.51834966661409
2025-10-02 14:09:00.326406,0.3721920504793525,-0.06118845771532506,-9.802747113704681,102.65738766663708,0.0071192774176597595,-0.005123659260571003,-0.003960903882980347,102.65738766663708,0.3730242919921875,-0.0622705078125,-9.802964630126954,102.65987166663399,0.0003387909382581711,-0.002844512928277254,-0.002782339695841074,102.65738766663708
2025-10-02 14:09:00.497809,0.3728005994483829,-0.061564451954327526,-9.802717877626419,102.8361506666406,-0.002770191505551338,0.0025871142698451876,0.012330023646354675,102.8361506666406,0.36793487548828124,-0.055085449218750006,-9.797725524902344,102.8386336666299,0.0005776043981313705,-0.001048447098582983,0.0018843535799533129,102.8361506666406
2025-10-02 14:09:00.617279,0.3726287278532982,-0.0609331582300365,-9.80273249566555,102.95532566664042,-0.0006522569060325623,0.0016564202634617687,0.007251716852188111,102.95532566664042,0.38170623779296875,-0.06062393188476563,-9.795779571533204,102.95780966663733,-0.00022360216826200485,-0.001056203618645668,0.0015389006584882736,102.95532566664042
2025-10-02 14:09:00.823189,0.37243474647402763,-0.06099679694976658,-9.802736588716508,103.15395066665951,-0.0006080373376607895,-0.0011240084376186133,-0.0027709954977035525,103.15395066665951,0.37616775512695316,-0.058977355957031255,-9.801168365478516,103.15643466665642,-0.0007035168819129467,0.002930939896032214,-0.0019415989518165588,103.15395066665951
2025-10-02 14:09:01.005235,0.3725679899007082,-0.06025172919966281,-9.802737758159639,103.34264466661261,0.007491671964526177,-0.002916915505193174,0.003066279888153076,103.34264466661261,0.3800596618652344,-0.06316864013671876,-9.799671478271485,103.33519766665995,0.00014954432845115662,-0.0017733594868332148,-0.0023838751949369907,103.34264466661261
2025-10-02 14:09:01.135386,0.3726670636609197,-0.059855827018618586,-9.802735419273377,103.47175154165598,0.007841627821326256,-0.0007680911617353559,0.011896744966506959,103.47175154165598,0.3757186889648438,-0.06780899047851563,-9.793085174560547,103.47423454164527,4.964089021086693e-05,0.0018605319783091545,-0.0009470065124332905,103.47175154165598
2025-10-02 14:09:01.253148,0.37268635947257284,-0.05986227266024798,-9.802736588716508,103.59092654165579,-0.00789491057395935,-0.0012107390910387039,0.005009894371032715,103.59092654165579,0.3730242919921875,-0.060474243164062504,-9.796827392578125,103.5934105416527,-0.0019193929620087147,-0.0014461030950769782,-0.0006380309350788593,103.59092654165579
2025-10-02 14:09:01.410049,0.373351224437356,-0.0599916925560683,-9.802711445689201,103.73989554162836,0.0037147361040115357,0.0028105829749256375,0.00019412755966186524,103.73989554162836,0.3770658874511719,-0.05718109130859375,-9.802515563964844,103.73244754166808,-0.0014366204850375652,-0.00024214910808950663,-0.0008277902379631996,103.73989554162836
2025-10-02 14:09:01.597034,0.37364453539252285,-0.060225741066969936,-9.802696242928505,103.93852054164745,0.0056666828691959385,-0.004589474997483194,0.004821614027023316,103.93852054164745,0.37931121826171876,-0.06481521606445313,-9.797875213623048,103.93107354163658,-0.0022078007459640503,0.0034901255276054144,0.002302085980772972,103.93852054164745
2025-10-02 14:09:01.754636,0.37377796154469256,-0.0599745666095987,-9.802693904042245,104.09742154163541,-0.0007537060976028442,-0.0027450027968734503,0.00945845603942871,104.09742154163541,0.3730242919921875,-0.06271957397460938,-9.793234863281251,104.08997354161693,3.902427852153778e-05,0.0003323699929751456,0.0013405526988208294,104.09742154163541
2025-10-02 14:09:01.874901,0.3736168707534671,-0.05974166013300419,-9.802699751257897,104.21659654163523,0.0001557917520403862,0.007799683185294271,0.008717613816261292,104.21659654163523,0.3746708679199219,-0.0544866943359375,-9.801767120361328,104.21908054163214,3.788899630308151e-05,-0.0006210540886968374,-0.0017558378167450428,104.21659654163523
2025-10-02 14:09:02.006429,0.3738769256696105,-0.05913027891889215,-9.80269682765007,104.34570254164282,-0.003996023721992969,0.00284730623010546,0.0013764345645904542,104.34570254164282,0.3698808288574219,-0.056282958984375006,-9.80131805419922,104.33825554163195,-0.0015396596863865852,4.3213891331106424e-05,0.0003212597221136093,104.34570254164282
2025-10-02 14:09:02.211323,0.3734369592368603,-0.05872331727761775,-9.802711445689201,104.55425933329388,-0.002508382424712181,-0.001301855156198144,0.004688882231712341,104.55425933329388,0.37092864990234375,-0.06002517700195313,-9.79802490234375,104.54681133333361,-0.0015113770496100187,0.0004224246949888766,0.0010230615735054016,104.55425933329388
2025-10-02 14:09:02.356065,0.3736766950786114,-0.059311314197257166,-9.802703844308853,104.68336533330148,0.0054849075525999075,-0.0016120088333263995,0.006921933889389038,104.68336533330148,0.3852987670898438,-0.0544866943359375,-9.799671478271485,104.68584933329839,-0.0004737628623843193,-0.0005717690219171345,0.0001706387847661972,104.68336533330148
2025-10-02 14:09:02.485026,0.37416632629930974,-0.05980089516844601,-9.802681040167808,104.82240333332447,-0.004734527058899403,0.008457659399136902,0.011839442253112793,104.82240333332447,0.3737727355957031,-0.05837860107421875,-9.792636108398439,104.82488733332139,0.0015310663729906082,0.0017280500615015626,0.0026697320863604546,104.82240333332447
2025-10-02 14:09:02.645385,0.3732052998617292,-0.05994829982053489,-9.802716708183288,104.99123533332022,-0.004372328594326973,0.006060360367409885,0.0046906363964080815,104.99123533332022,0.3688330078125,-0.053887939453125006,-9.79802490234375,104.98378733330173,0.0007443414069712162,-0.0017344467341899872,0.0032333198469132185,104.99123533332022
2025-10-02 14:09:02.789870,0.37309749182313684,-0.0599619631189853,-9.802716708183288,105.130273333285,-0.0026179811730980876,-0.007547631645575166,-0.001592196822166443,105.130273333285,0.3704795837402344,-0.06750961303710938,-9.804311828613281,105.12282533332473,0.0006413320079445839,-0.0007926822290755808,0.0027856321539729834,105.130273333285
2025-10-02 14:09:03.084614,0.37332027073949575,-0.05972742581740022,-9.802712030410767,105.41827933333116,0.001649901531636715,-0.0034412097511813044,0.006483977437019349,105.41827933333116,0.37497024536132817,-0.06316864013671876,-9.796228637695313,105.41083233332029,0.0007026614621281624,0.001005189842544496,-0.0016078068874776363,105.41827933333116
2025-10-02 14:09:03.290124,0.37343871340155604,-0.059336936878971756,-9.80271027624607,105.62683629163075,0.005273749977350235,0.0009583312366157771,0.004536269903182984,105.62683629163075,0.3784130859375,-0.06780899047851563,-9.793983306884765,105.62932029162766,-0.0004471694119274616,0.0012198695912957191,0.0012380057014524937,105.62683629163075
2025-10-02 14:09:03.408434,0.373554670996964,-0.0597624588618055,-9.802703259587288,105.75594229163835,-0.002925398536026478,-0.0032564925542101267,-0.008343976736068726,105.75594229163835,0.3706292724609375,-0.06301895141601563,-9.811047821044923,105.74849529162748,-0.002478854963555932,-0.0014509378233924508,-0.0006655254401266575,105.75594229163835
2025-10-02 14:09:03.570783,0.3736112062633038,-0.06074844560120255,-9.80269682765007,105.90491129166912,0.006897558309137822,-0.007509615607559681,0.013352701663970947,105.90491129166912,0.38050872802734376,-0.06825805664062501,-9.789342956542969,105.89746429165825,-0.0006264825351536274,-0.0017645158804953098,0.00019989162683486938,105.90491129166912
2025-10-02 14:09:03.699779,0.37368722006678584,-0.060325870066881185,-9.80269565820694,106.04394929163391,0.00038492951542139057,0.002096948577091098,0.014998108148574829,106.04394929163391,0.3740721130371094,-0.05822891235351563,-9.787696380615236,106.03650229162304,0.0009023095481097698,0.0006112894625402987,0.0023682909086346626,106.04394929163391
2025-10-02 14:09:03.850440,0.3736385785415769,-0.059931320054456595,-9.802699751257897,106.1829872916569,0.002678865306079388,-0.00174042830709368,0.010811501741409303,106.1829872916569,0.3776646423339844,-0.06631210327148437,-9.804760894775391,106.18547129165381,-0.00012452201917767525,0.0015734226908534765,-0.0018685641698539257,106.1829872916569
2025-10-02 14:09:03.985770,0.37331186536699534,-0.058847867539152506,-9.802718462347984,106.32202529162169,0.0033049559220671657,-0.01210458150599152,-0.004438036680221558,106.32202529162169,0.37272491455078127,-0.05792953491210938,-9.797725524902344,106.32450829166919,0.0026036729104816914,0.001203699503093958,-0.0004827515222132206,106.32202529162169
2025-10-02 14:09:04.147219,0.37368016686290506,-0.05869942135177553,-9.802705013751984,106.49085691664368,-0.0017036593705415726,-0.001325755650177598,0.0031832242012023925,106.49085691664368,0.37197647094726566,-0.06002517700195313,-9.799521789550782,106.48340991663281,-0.00031639402732253075,0.0016292098443955183,-0.0031364234164357185,106.49085691664368
2025-10-02 14:09:04.275339,0.37374079518020153,-0.058974181101657454,-9.802700335979463,106.61996391665889,-0.0022134269401431084,-0.0070385401602834465,-0.0002637094259262085,106.61996391665889,0.3715274047851563,-0.06601272583007813,-9.802964630126954,106.6125159166404,6.132526323199272e-05,0.0015704106772318482,-0.0014561088755726814,106.61996391665889
2025-10-02 14:09:04.445230,0.3741476882994175,-0.05879458935465664,-9.802683963775635,106.78879491664702,7.407691329717637e-05,0.002361955353990197,0.0054098439216613775,106.78879491664702,0.3742218017578125,-0.05643264770507813,-9.797276458740235,106.78134791663615,-0.0013041314668953419,-0.000666110310703516,-0.00025386223569512367,106.78879491664702
2025-10-02 14:09:04.579935,0.37420601427555084,-0.05906641636043787,-9.802680455446243,106.91790191666223,0.001362912878394127,-0.004551271665841341,0.006454156637191772,106.91790191666223,0.3722758483886719,-0.07259902954101563,-9.794881439208984,106.92038591665914,-0.00011959532275795937,-0.00024021457647904754,0.000967253465205431,106.91790191666223
2025-10-02 14:09:04.727368,0.37397373363375663,-0.058935178346000615,-9.802692149877549,107.0668709166348,0.004589041024446488,-0.0021378197008743885,0.004966624975204468,107.0668709166348,0.37242553710937504,-0.06391708374023437,-9.793833618164063,107.06935491663171,-0.00012416206300258636,0.0011320821940898895,-0.0001600193791091442,107.0668709166348
2025-10-02 14:09:04.850294,0.37413288753479723,-0.059297984372824436,-9.802685717940332,107.19597791665001,-0.002904823645949364,0.0012187516037374735,0.005257816314697266,107.19597791665001,0.37122802734375004,-0.0580792236328125,-9.797426147460937,107.18852991663152,-0.0013416032306849957,0.0015162804629653692,-0.001235094852745533,107.19597791665001
2025-10-02 14:09:05.046471,0.3738517460972071,-0.05978450469207019,-9.80269331932068,107.3946029166691,0.007854564785957337,-0.0018872528057545424,0.012001994848251343,107.3946029166691,0.38170623779296875,-0.061671752929687504,-9.790690155029298,107.38715491665062,0.0019238069653511047,1.832493580877781e-06,0.0010296236723661423,107.3946029166691
2025-10-02 14:09:05.171600,0.3740058567747474,-0.05981808050069958,-9.80268337905407,107.5137774166651,-0.0023288729041814806,0.0024873233120888474,0.007953967452049255,107.5137774166651,0.37167709350585937,-0.057330780029296875,-9.794731750488282,107.50633041665424,-0.001230396330356598,0.0007340656593441963,-0.0004464350640773773,107.5137774166651
2025-10-02 14:09:05.347377,0.3739128860458732,-0.059308189591392876,-9.802692734599114,107.68260941666085,-0.005229566954076291,-0.006405154229141772,0.005715068578720093,107.68260941666085,0.37272491455078127,-0.06301895141601563,-9.800569610595703,107.68509241665015,0.0009559602476656437,0.0003403910668566823,-0.0008009434677660465,107.68260941666085
2025-10-02 14:09:05.490951,0.37388938754796985,-0.05925274154171348,-9.80269331932068,107.83157841663342,0.007068443186581135,0.0005747538898140192,0.0006268215179443359,107.83157841663342,0.38095779418945314,-0.058677978515625,-9.802066497802734,107.82413041661493,0.0005602333694696426,0.00018164445646107197,0.0009148323442786932,107.83157841663342
2025-10-02 14:09:05.742127,0.37447769053280355,-0.05945080226752907,-9.8026710999012,108.07986041664844,0.0039354684948921205,-0.0002750018611550331,0.005393471717834473,108.07986041664844,0.3784130859375,-0.059725799560546876,-9.797276458740235,108.07241241662996,0.0004978710785508156,0.0018826979212462902,0.001667093951255083,108.07986041664844
2025-10-02 14:09:05.926070,0.370636179484427,-0.06059064386878163,-9.802809678912164,108.26855441665975,-0.4359004617109895,2.383011104464531,-0.20507939457893373,108.26855441665975,0.6456074523925781,2.0348684692382815,-10.298284606933594,108.27103841665667,-0.0024576173163950443,-0.00868218857795,-0.003960140980780125,108.26855441665975
2025-10-02 14:09:06.069882,0.37207675069570545,-0.061963012791238725,-9.802744190096856,108.40759241662454,0.009479725286364557,0.2855979660898447,-0.006056545972824097,108.40759241662454,0.3788621520996094,0.202379150390625,-9.700128479003906,108.41007541661384,0.004737536888569593,-0.004231786821037531,-0.0002291891723871231,108.40759241662454
2025-10-02 14:09:06.245139,0.3681902526319027,-0.07766650984995067,-9.802778688669205,108.57642391661648,-0.4041156186908484,2.6514143827557564,-0.042695783972740174,108.57642391661648,0.39951919555664067,2.714305572509766,-9.273216247558594,108.57890791661339,0.027150170877575874,0.014436328783631325,0.027463432401418686,108.57642391661648
2025-10-02 14:09:06.364360,0.33328482370823626,-0.0897837131191045,-9.803928835988046,108.70553091663169,-0.6485291598737241,5.3065850168466575,-1.023358633518219,108.70553091663169,0.40206390380859375,4.988675994873047,-9.258397064208985,108.7080149166286,0.11040537804365158,-0.03195391967892647,0.039329998195171356,108.70553091663169
2025-10-02 14:09:06.527493,0.31326337259262804,-0.04971392283216119,-9.804871407151223,108.87436291662743,0.45014913953840735,-0.1722744499705732,-0.8035688138008118,108.87436291662743,0.7634124755859375,-0.2219883728027344,-10.60843963623047,108.86691491666716,-0.23185698688030243,0.40580642223358154,-0.012914328835904598,108.87436291662743
2025-10-02 14:09:06.660087,0.36358217161148787,0.005070269727730193,-9.803260499238968,109.00346891663503,-2.096678216457367,-0.14398140882141888,-5.948484749794007,109.00346891663503,-1.7330960083007814,-0.1389111328125,-15.751744079589844,108.99602191662416,-0.030598701909184456,0.6142670512199402,0.03628215193748474,109.00346891663503
2025-10-02 14:09:06.822383,0.29198871698230505,-0.04580607786308974,-9.805546175837517,109.16236991662299,-0.09634555902332068,-0.018709760759957134,0.7502772903442383,109.16236991662299,0.3183879089355469,0.03981719970703125,-11.89411605834961,109.16485291661229,-0.04142773896455765,-0.12076358497142792,0.025346126407384872,109.16236991662299
2025-10-02 14:09:06.971662,0.319763356782496,-0.09084646283648909,-9.80436854660511,109.31133891665377,0.43242253784090284,-0.10838924269191921,2.5058441483974456,109.31133891665377,0.28306137084960936,-0.10987152099609375,-11.602672119140626,109.31382191664306,0.09643487632274628,-0.042704977095127106,0.0855037048459053,109.31133891665377
2025-10-02 14:09:07.152244,0.30807305507361893,-0.04544025686569512,-9.805054425001146,109.49010166665539,0.6774774089455605,-0.15858546031638981,3.536092556118965,109.49010166665539,-0.5426216125488281,0.14400054931640627,-12.379406890869141,109.49258466664469,-0.24344022572040558,-0.5094367265701294,0.06654848158359528,109.49010166665539
2025-10-02 14:09:07.278122,0.33746942013502124,-0.06241288294550032,-9.803992570638657,109.61920766666299,-0.38821400608867407,0.0017889693332836033,0.3688160508871079,109.61920766666299,0.997375946044922,-0.076640625,-10.25068359375,109.6216916666599,0.0719195008277893,-0.1495685875415802,0.026673315092921257,109.61920766666299
2025-10-02 14:09:07.446413,0.3387836549431086,-0.1158167597372085,-9.803462812900543,109.77810866665095,0.3220919738709927,0.019716619318351152,0.7642117899656297,109.77810866665095,0.6608757019042969,-0.09610015869140626,-9.039252777099609,109.77066066663247,0.043846771121025085,0.23510952293872833,0.03646516054868698,109.77810866665095
2025-10-02 14:09:07.597824,0.3486176484078169,-0.15947027195245028,-9.802508547306061,109.9370086666313,0.7165673612058163,0.10064258644357324,-0.8074291455745698,109.9370086666313,0.6010002136230469,-0.07918533325195314,-10.072703704833986,109.93949266662821,0.02111855521798134,0.064780093729496,0.0064248694106936455,109.9370086666313
2025-10-02 14:09:07.728093,0.34784380596131087,-0.1980037702806294,-9.801830270290376,110.07604666665429,0.8849924612045289,0.11821970041841269,-3.255066601037979,110.07604666665429,1.2328363037109376,-0.07978408813476563,-13.056898040771484,110.06859866663581,0.0626402497291565,-0.03188787400722504,0.020727282389998436,110.07604666665429
2025-10-02 14:09:07.854181,0.3047074891068042,-0.21782129975035788,-9.802850024700165,110.18529066664632,-0.08271907975897193,0.1408812790364027,-0.006104493141174317,110.18529066664632,-0.009729766845703125,-0.1429527282714844,-9.932894439697266,110.18777466664324,-0.030270421877503395,-0.06789568811655045,0.013589607551693916,110.18529066664632
2025-10-02 14:09:07.973479,0.2894707962870598,-0.17906577168032528,-9.804093727469445,110.32432866666932,0.22141684401780368,0.2019681276753545,-1.4110348784923554,110.32432866666932,0.5108876037597656,0.022902374267578126,-11.215128021240234,110.31688066665083,-0.05729236453771591,0.08079462498426437,0.03165246918797493,110.32432866666932
2025-10-02 14:09:08.105549,0.30412296853959564,-0.14240008416585626,-9.80425160229206,110.4534346666187,0.21529687402769923,0.10422946038655938,-0.12490120410919191,110.4534346666187,0.5194198608398438,-0.03817062377929688,-9.929152221679688,110.44598766666604,-0.04363292455673218,-0.08670676499605179,0.028322935104370117,110.4534346666187
2025-10-02 14:09:08.231684,0.2898983191139996,-0.13389680734835566,-9.804802410006523,110.57261058333097,0.43654106073081494,0.1674270533770323,1.8356737124919893,110.57261058333097,0.7264393615722656,0.0335302734375,-7.969128112792969,110.56516258331249,0.0598420687019825,0.17763441801071167,0.023709654808044434,110.57261058333097
2025-10-02 14:09:08.366848,0.2722581831179559,-0.17616960922256114,-9.804637518525125,110.71164858329576,0.07906122609972954,0.01944553691893816,0.14298021018505097,110.71164858329576,0.35131942749023437,-0.15672409057617187,-9.661658477783204,110.70420058333548,-0.03518733009696007,0.010632431134581566,0.015206154435873032,110.71164858329576
2025-10-02 14:09:08.504834,0.28509801087901,-0.1952904429472983,-9.803910709619522,110.83082358329557,-0.7160518560558558,0.13870812479406597,-0.40575700521469116,110.83082358329557,0.2674937438964844,-0.108973388671875,-9.22366928100586,110.83330758329248,0.0010593575425446033,-0.07306703180074692,0.01416182704269886,110.83082358329557
2025-10-02 14:09:08.661906,0.32980046790093187,-0.18867280181497337,-9.802638355493546,110.99965558329131,0.022566744089126588,0.23118441676720977,0.928942472934723,110.99965558329131,0.2812651062011719,-0.15552658081054688,-9.73620346069336,111.00213858328061,0.14609840512275696,-0.4345532953739166,0.0015493272803723812,110.99965558329131
2025-10-02 14:09:08.784111,0.2966566040553153,-0.21713163893669846,-9.803111979961395,111.11883058329113,-0.13708835469558836,0.024033116139471532,3.3138042211532595,111.11883058329113,0.21046234130859376,-0.10208770751953125,-10.78806610107422,111.12131458328804,0.06358371675014496,-0.0002683461643755436,0.027248861268162727,111.11883058329113
2025-10-02 14:09:08.923166,0.2858777553588152,-0.2298754079081118,-9.803139461874963,111.2677995833219,-0.8003578884154559,0.031837230417877435,0.9134251320362091,111.2677995833219,-0.5144801330566406,-0.1980381774902344,-8.889713745117188,111.26035258331103,-0.08737161755561829,-0.21766573190689087,0.025825638324022293,111.2677995833219
2025-10-02 14:09:09.048385,0.29270428827032446,-0.26175212530419234,-9.802138418555261,111.3969065832789,0.27386753786355256,0.23765220472589135,3.3944127666950226,111.3969065832789,0.5665718078613281,-0.024099884033203126,-6.4077250671386725,111.38945858331863,0.015218943357467651,-0.061339735984802246,0.017315298318862915,111.3969065832789
2025-10-02 14:09:09.177665,0.31406487967818975,-0.29618707263842226,-9.800498859286309,111.51608141663019,0.1888892584294081,-0.1021346314251423,-0.7471689105033875,111.51608141663019,0.5029541015625,-0.3983216857910156,-10.547666015625001,111.50863441661932,0.030667763203382492,-0.424937903881073,0.028484558686614037,111.51608141663019
2025-10-02 14:09:09.317017,0.300902212522924,-0.25802110835909847,-9.801988145112992,111.65511941665318,0.8561915619671345,0.14425769889727236,5.29950169980526,111.65511941665318,-0.8798703002929688,-0.024399261474609375,-12.952115936279297,111.65760341665009,-0.0704413652420044,0.5843365788459778,0.06570515036582947,111.65511941665318
2025-10-02 14:09:09.466480,0.2982924539968372,-0.21215818002820017,-9.80316694378853,111.80408841662575,-0.6232667031884194,0.22637864504009486,5.5100961881876,111.80408841662575,0.4327500915527344,0.12244537353515626,-14.41128158569336,111.80657241662266,0.05113770812749863,-0.25042304396629333,0.03889881446957588,111.80408841662575
2025-10-02 14:09:09.607434,0.3029338093288243,-0.1862756078504026,-9.803554614186288,111.94312641664874,0.42530190825462344,0.08822945924475789,-0.06796920418739319,111.94312641664874,0.41448806762695317,-0.13172607421875002,-9.857002258300781,111.94561041664565,0.0066387709230184555,0.028267836198210716,-0.01238762866705656,111.94312641664874
2025-10-02 14:09:09.737880,0.2698408710770309,-0.19041585680097342,-9.804441052079202,112.07223341666395,0.1937451700307429,0.03683519281446934,-0.8384287440776825,112.07223341666395,-0.21899459838867188,-0.07753875732421875,-9.900112609863282,112.07471741666086,-0.01566254161298275,0.23740077018737793,0.015164580196142197,112.07223341666395
2025-10-02 14:09:09.908665,0.23317577742040158,-0.13843097590841352,-9.806250180602074,112.2410654166597,-0.4131016927957535,-0.014251482663676143,1.0795492064952852,112.2410654166597,2.4533981323242187,-0.014519805908203126,-8.142767028808594,112.24354841664899,-0.03233011066913605,-0.017679696902632713,0.00424394104629755,112.2410654166597
2025-10-02 14:09:10.053271,0.21235872125253083,-0.13005148647353054,-9.806841918826104,112.39003441663226,-0.2548702448420227,0.06718217809684575,-1.7308682191371918,112.39003441663226,0.12648696899414064,-0.07948471069335938,-6.6401916503906255,112.39251841662917,0.08071015775203705,-0.06540898233652115,0.01872679591178894,112.39003441663226
2025-10-02 14:09:10.184215,0.23816259356215597,-0.09168499924242497,-9.806680535674095,112.51914154161932,-0.24145576369017363,0.05965161301195622,0.3132715952396393,112.51914154161932,-0.0032931518554687503,-0.03203338623046875,-9.49340835571289,112.51169354165904,-0.1291012167930603,-0.08045125752687454,0.022917738184332848,112.51914154161932
2025-10-02 14:09:10.305485,0.2373296211473644,-0.06772257959470153,-9.806895713210107,112.64824754162692,-0.4983867683261633,0.13178935205563905,1.7011012136936188,112.64824754162692,-0.26105712890625,0.0640667724609375,-8.105793914794923,112.64080054161604,-0.14418455958366394,-0.07068682461977005,0.059452787041664124,112.64824754162692
2025-10-02 14:09:10.449373,0.2249422216974199,-0.04642312813550234,-9.807312619686128,112.78728554164991,0.13146664056926965,0.062439816682599486,0.1713994324207306,112.78728554164991,0.35640884399414063,0.016016693115234376,-9.635912017822266,112.77983854163904,0.0027755899354815483,-0.07528792321681976,0.010965472087264061,112.78728554164991
2025-10-02 14:09:10.718622,0.23903196489438416,-0.039041187395341695,-9.807011488080025,113.0554305416299,0.2920636709779501,-0.28084361331537366,-2.0393556225299836,113.0554305416299,0.39712417602539063,-0.021106109619140626,-7.804021453857422,113.05791454162681,-0.03655778989195824,0.35549861192703247,0.005857888609170914,113.0554305416299
2025-10-02 14:09:10.848008,0.24372088367119432,-0.008275420987629333,-9.806969388127328,113.1944685416529,0.7581457422673703,-0.11970843806862831,-1.1113264846801758,113.1944685416529,1.0018666076660157,-0.1279838562011719,-10.918295288085938,113.18702054163441,0.08299212902784348,-0.01043158583343029,0.008230089209973812,113.1944685416529
2025-10-02 14:09:10.963768,0.24167695289477706,-0.007087826934875921,-9.807021428346635,113.31364354165271,-0.9374300719052554,0.024601408399175854,-0.04549133777618408,113.31364354165271,-0.6957531738281251,0.017513580322265625,-9.852511596679689,113.30619654164184,0.029445547610521317,-0.0684671550989151,0.023260805755853653,113.31364354165271
2025-10-02 14:09:11.076781,0.22381785694509745,0.035146459832321855,-9.807386294603349,113.42288754164474,-0.23818791931495073,-0.032751431164797395,-0.8497045147418977,113.42288754164474,-0.1293310546875,-0.11421249389648438,-10.290650482177735,113.42537154164165,0.0011932235211133957,0.026215892285108566,0.02653021737933159,113.42288754164474
2025-10-02 14:09:11.235422,0.21544429695233705,-0.005470604143920355,-9.807628954052925,113.56192579166964,-0.20795993400737645,-0.1311951927188784,-0.6638419944047929,113.56192579166964,0.00748443603515625,-0.13666580200195313,-10.47147445678711,113.55447879165877,0.00748929800465703,-0.13836562633514404,-0.004321398679167032,113.56192579166964
2025-10-02 14:09:11.390329,0.19178741259500384,-0.025873997784219685,-9.808091468811035,113.73075779166538,0.4723814228922129,-0.06453798952046783,0.43982288360595706,113.73075779166538,-0.29294082641601565,-0.030087432861328128,-10.136920166015626,113.7332417916623,0.08602724969387054,-0.06776562333106995,-0.002812944818288088,113.73075779166538
2025-10-02 14:09:11.647215,0.21167251395061612,0.003717350791557692,-9.807714908123017,113.9889717916376,0.2791567646898329,-5.62946826517582,-0.18026439607143402,113.9889717916376,-0.7238946533203126,-5.220244445800781,-9.185199279785158,113.9914547916269,0.014034812338650227,-0.05461721867322922,0.024665767326951027,113.9889717916376
2025-10-02 14:09:11.832240,0.2533286629803479,0.0015447969737579115,-9.806730821728706,114.1776657916489,0.12483251759782434,-0.6379049152135849,0.16976922869682312,114.1776657916489,0.40625518798828125,-0.24938140869140626,-9.636959838867188,114.17021779163042,-0.002189163351431489,0.00991909671574831,0.005874983500689268,114.1776657916489
2025-10-02 14:09:11.978075,0.26360653320327404,0.00206054152266006,-9.806459510922432,114.31670379161369,0.09729299068450928,-0.6231190609931946,0.05094445109367371,114.31670379161369,0.3608995056152344,-0.6210585021972657,-9.755513305664063,114.30925579165341,-0.00042934948578476906,0.004452797118574381,-0.0018592164851725101,114.31670379161369
2025-10-02 14:09:12.092214,0.2635731127113104,0.002770924406067934,-9.806460095643997,114.4358787916135,0.11484000977128744,0.5271271488815547,0.034479861259460454,114.4358787916135,0.3784130859375,0.5298980712890625,-9.771979064941407,114.42843179166084,-0.0010898117907345295,-0.0025715178344398737,0.001354743493720889,114.4358787916135
2025-10-02 14:09:12.234093,0.26651716751977805,0.004186808261729311,-9.806377065181733,114.57491633330937,0.10800397513434291,0.1082294218428433,-0.024129120111465455,114.57491633330937,0.37018020629882814,0.07619155883789062,-9.813293151855468,114.57740033330629,-0.0007185651920735836,0.0006060479208827019,0.001792040653526783,114.57491633330937
2025-10-02 14:09:12.406353,0.27081702718511225,0.005945004624081776,-9.806261875033378,114.73381733329734,0.10774578401818873,-0.06147951657883823,-0.016463420391082763,114.73381733329734,0.37976028442382814,-0.08098159790039063,-9.836045837402343,114.73630133329425,-0.0019463710486888885,0.0020740339532494545,0.002692116890102625,114.74374833330512
2025-10-02 14:09:12.553906,0.26858450543135404,0.007137596789980307,-9.80632327079773,114.88278633332811,0.09890134043991566,-0.6100837535038591,0.032695291042327886,114.88278633332811,0.3680845642089844,-0.5111869812011719,-9.776619415283204,114.88527033332502,-0.00020928122103214264,-0.003005131147801876,0.00032949820160865784,114.88278633332811
2025-10-02 14:09:12.678176,0.2591309098899365,0.007107646369258874,-9.806576455235481,115.0218243332929,0.09578110171481967,-0.028812506874091925,-0.0026768553256988526,115.0218243332929,0.37092864990234375,-0.021704864501953126,-9.86224136352539,115.02430833328981,-0.0006808377802371979,-0.0015826753806322813,-0.004179745446890593,115.0218243332929
2025-10-02 14:09:12.866977,0.250855053216219,0.0052049566857749596,-9.806791632771493,115.21051933331182,0.05031865283846856,0.3297983848303557,-0.143018217086792,115.21051933331182,0.3011737060546875,0.3350033569335938,-9.94980926513672,115.20307133329334,0.0033243782818317413,-0.012191654182970524,-0.011134683154523373,115.21051933331182
2025-10-02 14:09:12.993140,0.24926157731562854,0.002540294003847521,-9.806830809116365,115.33962633332703,0.23737641714513302,0.008237297027371825,0.2538480967283249,115.33962633332703,0.4866380310058594,0.010777587890625,-9.552984466552735,115.33217833330855,-0.012316543608903885,-0.03460913151502609,0.009888382628560066,115.33962633332703
2025-10-02 14:09:13.157146,0.2357421934604645,0.0037400238841655666,-9.807165269851685,115.4885958333034,0.3567257265374065,0.1335245315730572,-0.09773620963096619,115.4885958333034,0.22109024047851564,0.12199630737304688,-9.799222412109376,115.49107983330032,0.004562838468700647,-0.016975050792098045,-0.0003635575994849205,115.4885958333034
2025-10-02 14:09:13.280272,0.2264991525001824,0.0028730896531487817,-9.807386879324914,115.6276338333264,0.27540712801739575,0.0561042671604082,0.04244143009185791,115.6276338333264,0.5019062805175781,0.058977355957031255,-9.764943695068359,115.62018583330791,0.0011247838847339153,-0.0009543194901198149,-0.001924852840602398,115.6276338333264
2025-10-02 14:09:13.453105,0.22321754889562728,0.001850268024718389,-9.807459384799005,115.79646583332215,-0.0049714123830199245,0.10442872253246606,-0.06466084957122803,115.79646583332215,0.21824615478515627,0.10627899169921876,-9.872120819091798,115.78901783330366,0.005613896995782852,-0.003818942466750741,-0.005108748562633991,115.79646583332215
2025-10-02 14:09:13.575983,0.2201577192172408,-0.00026242465517498206,-9.80753130555153,115.91564083332196,0.10990590993314982,0.016129429031861948,0.0017214202880859377,115.91564083332196,0.33006362915039067,0.015867004394531252,-9.805808715820312,115.90819383331109,0.0003636549226939678,-0.005284546408802271,-0.0030733603052794933,115.91564083332196
2025-10-02 14:09:13.764879,0.2191161291114986,-0.0030158413719618693,-9.807554109692575,116.10433583328268,0.23054882442578675,0.031456695450469856,0.03751924395561219,116.10433583328268,0.4496649169921875,0.02844085693359375,-9.770033111572266,116.0968878333224,-0.004557511769235134,-0.003191431052982807,-0.0010039047338068485,116.10433583328268
2025-10-02 14:09:13.883902,0.21628700863569977,-0.004085875269665849,-9.807615505456925,116.22351083328249,0.2137686859443784,0.06590731606353074,0.047011613845825195,116.22351083328249,0.21061203002929688,0.0016465759277343752,-9.75581268310547,116.2259948332794,0.0005475915968418121,0.0022584409452974796,-0.0021169777028262615,116.22351083328249
2025-10-02 14:09:14.048873,0.21833963714540006,-0.0032280170707963407,-9.807569897174835,116.39234283333644,0.17609014190733432,-0.0008135769606451504,0.10669297456741333,116.39234283333644,0.23096969604492187,-0.042810974121093755,-9.85266128540039,116.39482683333335,0.002883006352931261,0.0019347353372722864,-0.004879029933363199,116.39234283333644
2025-10-02 14:09:14.176690,0.23132855063304306,0.0007457947263173993,-9.807271104454994,116.52144983329345,0.23824494794011117,0.058381250593811274,-0.08355963528156281,116.52144983329345,0.46957351684570314,0.05912704467773438,-9.890831909179688,116.51400183333317,0.004960181657224894,-0.020564725622534752,-0.007347963750362396,116.52144983329345
2025-10-02 14:09:14.380909,0.21770894184708597,-0.005169104802771472,-9.807585684657097,116.72007583332015,0.12807207606732846,0.020587041322141886,0.06763708233833313,116.72007583332015,0.3457809448242188,0.015417938232421876,-9.739945678710939,116.71262783330167,-0.0014638944994658232,-0.0004856014857068658,-0.001797239761799574,116.72007583332015
2025-10-02 14:09:14.519111,0.24396436538547278,0.001616471189627191,-9.806967633962632,116.85911383328494,0.16663183204829693,0.2329457625746727,0.06552389860153199,116.85911383328494,0.4105961608886719,0.23456222534179688,-9.74144256591797,116.85166583332466,-0.0020913351327180862,0.004974943585693836,0.002537854015827179,116.85911383328494
2025-10-02 14:09:14.660894,0.2390507125295699,0.002500530653342139,-9.807088671326637,116.99815183330793,0.10732904199510813,-0.02615134766791016,0.004122287034988403,116.99815183330793,0.34637969970703125,-0.02365081787109375,-9.802964630126954,116.99070383328944,0.0037326421588659286,-0.008740847930312157,-0.0009590047411620617,116.99815183330793
2025-10-02 14:09:14.804786,0.2210999066568911,-0.0039494732616003605,-9.807506162524223,117.13718983333092,0.08276815982535482,0.11935947806574405,0.06097534954547883,117.13718983333092,0.44756927490234377,0.10627899169921876,-9.72183334350586,117.13967383332783,0.005370752885937691,-0.005878450348973274,-0.0017808000557124615,117.13718983333092
2025-10-02 14:09:14.974792,0.21901435101404787,-0.004466043073043693,-9.807555863857269,117.29609083331889,0.12317408278584481,0.0858967034239322,0.05039481282234192,117.29609083331889,0.33440460205078126,0.06735992431640625,-9.816436614990234,117.29857383330818,0.003079545684158802,-0.0008867143769748509,-0.0010618236847221851,117.29609083331889
2025-10-02 14:09:15.104396,0.21984717724844816,-0.003880377901950851,-9.80753481388092,117.44505983329145,0.11635367117822171,0.024238042775541545,0.009061430096626282,117.44505983329145,0.336500244140625,-0.019609222412109377,-9.782307586669923,117.44754383328836,-0.0001855776645243168,-0.006498441100120544,-0.0024171210825443268,117.44505983329145
2025-10-02 14:09:15.254997,0.2281263960711658,-6.957576351851458e-05,-9.807347702980042,117.59402983332984,0.08966275798156859,0.22280639827251436,0.019202256202697755,117.59402983332984,0.3177891540527344,0.22273681640625,-9.788145446777344,117.58658183331136,-0.003189623123034835,0.002565206028521061,-0.0023165051825344563,117.59402983332984
2025-10-02 14:09:15.379189,0.2290826899185777,0.0013703617971623316,-9.807323729395867,117.72313583327923,0.10217843072488904,0.13978610468097033,0.015886300206184388,117.72313583327923,0.33126113891601566,0.14115646362304687,-9.791438598632814,117.71568883332657,-0.0024694146122783422,0.0006780687253922224,-0.0004332554526627064,117.72313583327923
2025-10-02 14:09:15.518070,0.23170920437201858,0.005199128313688562,-9.807259994745255,117.86217383330222,0.10045004859566689,0.09973265918903053,0.009087157845497133,117.86217383330222,0.33215927124023437,0.10493179321289063,-9.798174591064454,117.85472683329135,0.0011767181567847729,-0.002000193577259779,-0.0023420508950948715,117.86217383330222
2025-10-02 14:09:15.645368,0.23569543400779366,0.009440706542227418,-9.80716351568699,117.99128083331743,0.09781105399131776,0.07243902596645058,0.0039000928401947024,117.99128083331743,0.3335064697265625,0.08187973022460938,-9.80326400756836,117.98383383330656,0.00110579002648592,0.00042541639413684607,0.0010913882870227098,117.99128083331743
2025-10-02 14:09:15.763192,0.23890168162062766,0.012279616536106914,-9.807085162997247,118.11045683332486,0.09685015546157956,0.06061879273038358,0.004867222309112549,118.11045683332486,0.3357518005371094,0.07289840698242188,-9.802216186523438,118.10300883330638,-0.0003625894896686077,-0.00024246113025583327,0.0012935323175042868,118.11045683332486
2025-10-02 14:09:15.915492,0.24131659995764496,0.013247572837863118,-9.807023767232895,118.23956383328186,0.08889675445854664,-0.008307842770591378,0.0033095240592956546,118.23956383328186,0.3288661193847656,-0.00389190673828125,-9.795031127929688,118.24204683332937,0.0016021132469177246,-0.0038975465577095747,0.0012366634327918291,118.23956383328186
2025-10-02 14:09:16.070907,0.23477504571899774,0.010879562417976558,-9.8071869045496,118.39846383332042,0.0598123748973012,-0.01282551692915149,-0.031704772710800175,118.39846383332042,0.29458740234375,-0.001945953369140625,-9.838889923095703,118.39101683330955,-9.03252512216568e-05,0.004016147926449776,-0.0013096355833113194,118.39846383332042
2025-10-02 14:09:16.224323,0.2365764997713268,0.012275178590789438,-9.807141880989075,118.56729558331426,0.10665980989113451,0.12738440696150066,0.005971176624298096,118.56729558331426,0.34323623657226565,0.13965957641601562,-9.801168365478516,118.55984858330339,-0.0011757961474359035,0.000694327347446233,-0.0005836309865117073,118.56729558331426
2025-10-02 14:09:16.369215,0.23743872653692963,0.01300680117099546,-9.807116153240205,118.70633458328666,0.08783482700586319,0.08518899846822024,-0.006773999333381653,118.70633458328666,0.32527359008789064,0.09819580078125001,-9.813891906738283,118.69888658332638,-0.0011023804545402527,0.002462517935782671,0.0019900896586477757,118.70633458328666
2025-10-02 14:09:16.504072,0.24178205659613014,0.014798868843354285,-9.807007395029068,118.84537258330965,0.0878324698470533,0.14432023669593036,0.006439538598060608,118.84537258330965,0.33635055541992187,0.15522720336914064,-9.805359649658204,118.84785558329895,-0.0010647405870258808,-0.0003640261711552739,-0.001167174894362688,118.84537258330965
2025-10-02 14:09:16.638854,0.24416680695489051,0.0193603822728619,-9.806944829821587,118.97447958332486,0.08410064890980722,0.07584164866246283,-0.001710895299911499,118.97447958332486,0.3384461975097656,0.09041198730468751,-9.804311828613281,118.97696258331416,0.0004458921030163765,-0.00274135684594512,-0.001196403056383133,118.97447958332486
2025-10-02 14:09:16.759397,0.24272217923775316,0.019851153243798762,-9.80697523534298,119.10358558333246,0.08554513044655324,-0.03332314267521724,0.010898040533065796,119.10358558333246,0.32826736450195315,-0.013471984863281251,-9.79607894897461,119.09613858332159,0.0012530065141618252,-0.0024859425611793995,-0.0005600363947451115,119.10358558333246
2025-10-02 14:09:16.885373,0.23937908850610257,0.018525463831610977,-9.807062943577767,119.22276158328168,0.06868035351857543,0.035212789184879516,0.012628816366195679,119.22276158328168,0.32407608032226565,0.08382568359375,-9.797725524902344,119.22524558327859,-0.00043170759454369545,-0.002389046596363187,0.0004111160524189472,119.22276158328168
2025-10-02 14:09:17.119800,0.23795717356726528,0.020947661495301875,-9.807089256048203,119.46111258328892,0.07369466984644532,0.05269918223842979,0.011162334680557252,119.46111258328892,0.32362701416015627,0.07454498291015625,-9.799521789550782,119.46359658328583,0.0013740048743784428,-0.000816895451862365,0.0028011142276227474,119.46111258328892
2025-10-02 14:09:17.257662,0.2394769197329879,0.02187697135610506,-9.807053588032723,119.59022004163126,0.08489857457578183,0.10760377890430392,-0.0011519014835357666,119.59022004163126,0.33171020507812504,0.12079879760742188,-9.804461517333985,119.59270404162817,0.0006166910752654076,0.0012730208691209555,-7.358985021710396e-05,119.59022004163126
2025-10-02 14:09:17.389889,0.242236969973892,0.026008460903540254,-9.806972896456719,119.72925804165425,0.08797634789720178,0.10631636819802225,0.012092626690864564,119.72925804165425,0.324525146484375,0.12693603515625002,-9.798324279785156,119.73174204165116,-0.001231187954545021,-0.0005949222249910235,0.0013314029201865196,119.72925804165425
2025-10-02 14:09:17.513695,0.24550481434911492,0.030520780063234273,-9.806882264614107,119.85836504166946,0.08006820799782872,0.07620728236623109,0.0037656068801879884,119.85836504166946,0.3224295043945313,0.10373428344726562,-9.797276458740235,119.86084904166637,-0.0004142196848988533,0.0019546530675143003,-0.00015721702948212624,119.85836504166946
2025-10-02 14:09:17.647668,0.2484777397848666,0.03360644484171644,-9.806795141100883,119.97754104161868,0.07440081249922514,0.05171611910685897,0.002782689929008484,119.97754104161868,0.32287857055664065,0.08532257080078126,-9.804012451171875,119.9700930416584,0.0006663142703473568,0.00010815227869898081,0.0011479109525680542,119.97754104161868
2025-10-02 14:09:17.789738,0.2516522114351392,0.03571112270699814,-9.806705678701402,120.13644104165724,0.07392071954905988,0.041378561602905393,0.006885681152343751,120.13644104165724,0.3255729675292969,0.07708969116210938,-9.799821166992189,120.12899404164637,0.002259434200823307,-0.001436723629012704,0.00033585401251912117,120.13644104165724
2025-10-02 14:09:17.938687,0.2546852352842689,0.0371915440633893,-9.80662206351757,120.27547904162202,0.06909144932404161,0.0431912943860516,0.002610781788825989,120.27547904162202,0.3239263916015625,0.08367599487304687,-9.80416213989258,120.27796304161893,0.0030095321126282215,-0.0003719092928804457,-0.002355571836233139,120.27547904162202
2025-10-02 14:09:18.055942,0.2565230882540345,0.0391091110277921,-9.806566514968873,120.39465504162945,0.07144486226141453,0.03693275452125818,0.003004299402236939,120.39465504162945,0.317340087890625,0.08083190917968751,-9.804910583496094,120.39713904162636,-0.0004125414416193962,0.001128590665757656,0.0030866642482578754,120.39465504162945
2025-10-02 14:09:18.245117,0.26031438633799553,0.04128146584611386,-9.806456587314607,120.59328095830278,0.05972004370763898,0.042244831169955435,0.00693713665008545,120.59328095830278,0.3200344848632813,0.08352630615234376,-9.799521789550782,120.5858329582843,0.0016320557333528996,0.0014110214542597532,0.0025944248773157597,120.59328095830278
2025-10-02 14:09:18.379938,0.26195319643244147,0.04272800304461271,-9.806406885981561,120.71245695831021,0.06436817815527321,0.03765483540482819,0.00269615113735199,120.71245695831021,0.3299139404296875,0.0772393798828125,-9.796528015136719,120.71493995829951,-0.0006844494491815567,-0.0031379503197968006,8.656224235892296e-05,120.71245695831021
2025-10-02 14:09:18.543214,0.2647560044378042,0.044305851347744465,-9.806329118013382,120.88128895830596,0.057673554774373775,0.034131047436967495,0.0005180633068084717,120.88128895830596,0.3224295043945313,0.07843688964843751,-9.805808715820312,120.87384095828747,-0.002006531460210681,-0.00025747271138243377,0.001292266882956028,120.88128895830596
2025-10-02 14:09:18.700286,0.2668144984357059,0.04535734060686082,-9.806267722249032,121.04018995829392,0.05366910740733147,0.040114928050898016,-0.002835899591445923,121.04018995829392,0.32048355102539067,0.08547225952148438,-9.809101867675782,121.03274195833365,-0.00010689906775951385,0.00040479557355865836,0.00030065979808568954,121.04018995829392
2025-10-02 14:09:18.858864,0.26918382676318287,0.04644276198931038,-9.806196970939636,121.17922795831691,0.05489229010418058,0.0382810584967956,0.009667786359786988,121.17922795831691,0.32407608032226565,0.08472381591796875,-9.796528015136719,121.17177995829843,0.00020939623937010765,-0.0005502091953530908,0.0015162185300141573,121.17922795831691
2025-10-02 14:09:18.996045,0.2709609783254564,0.047649732367135586,-9.806140837669373,121.32819695828948,0.04742691233754158,0.024949288037605585,0.00497305691242218,121.32819695828948,0.3183879089355469,0.07259902954101563,-9.801168365478516,121.32074995827861,0.0003891824744641781,0.001038272399455309,3.405846655368805e-05,121.32819695828948
2025-10-02 14:09:19.211853,0.27353008043020965,0.04853418768849224,-9.806065993309021,121.52682279166766,0.04485782850533724,0.03349523125682026,0.008639845848083496,121.52682279166766,0.3239263916015625,0.08158035278320312,-9.80086898803711,121.52930679166457,-0.0014675632119178772,0.0003510001115500927,0.0003440813161432743,121.52682279166766
2025-10-02 14:09:19.338279,0.2751536694914103,0.04942452220246196,-9.806019215583802,121.68572379165562,0.040390245113521815,0.03769433151930571,0.007242361307144165,121.68572379165562,0.3155438232421875,0.08711883544921875,-9.798773345947266,121.67827579163713,-0.0002761152572929859,-0.0007565011619590223,-0.002498048823326826,121.68572379165562
2025-10-02 14:09:19.469274,0.2763755731098354,0.05021993539296091,-9.805976530909538,121.81483079161262,0.048149518556892874,0.03525231499224901,0.009898751378059388,121.81483079161262,0.324525146484375,0.08547225952148438,-9.79607894897461,121.80738279165234,-0.0007527731359004974,-0.0017874999903142452,0.0010719012934714556,121.81483079161262
2025-10-02 14:09:19.613913,0.2772851257771254,0.051419866271317005,-9.805946710109712,121.95386879163561,0.042599706910550594,0.03016049108002335,0.004777175188064575,121.95386879163561,0.31988479614257814,0.08158035278320312,-9.801168365478516,121.94642179162474,0.0003879857249557972,8.863693801686168e-05,0.002548297867178917,121.95386879163561
2025-10-02 14:09:19.755810,0.27899485163390636,0.05166165777482093,-9.805893500447274,122.0929067916586,0.042237051632255315,0.023931127907708287,0.0033802753686904908,122.0929067916586,0.3200344848632813,0.07903564453125,-9.802216186523438,122.09539079165552,0.0009933458641171455,-0.0021364239510148764,0.00024052616208791733,122.0929067916586
2025-10-02 14:09:19.900810,0.2807659184373915,0.05290993781760335,-9.80583970606327,122.231945791631,0.04241202956065536,0.02852072624489665,-0.00026897192001342776,122.231945791631,0.3165916442871094,0.0796343994140625,-9.802066497802734,122.2344287916203,0.00156437698751688,0.0007549417205154896,-0.001441808883100748,122.231945791631
2025-10-02 14:09:20.082430,0.28262518683448434,0.05404840440955013,-9.805778895020486,122.42063979164232,0.03770865719765425,0.028879142291843893,0.008951502442359925,122.42063979164232,0.31823822021484377,0.08876541137695312,-9.800569610595703,122.42312379163923,0.0020997649990022182,-0.0008945938898250461,-0.001214576419442892,122.42063979164232
2025-10-02 14:09:20.259690,0.28342415403574706,0.05486058266367764,-9.805751413106918,122.59940379165346,0.02972464967519045,0.028216652758419516,0.0018886506557464601,122.59940379165346,0.3131488037109375,0.08307723999023438,-9.803862762451173,122.59195579163497,-0.0007399655878543854,-0.0036875333171337843,-0.0023722639307379723,122.59940379165346
2025-10-02 14:09:20.449111,0.2845246913842857,0.05561832699459046,-9.805718668699265,122.79802979162196,0.03655772415921092,0.028806129754520956,0.008588390350341797,122.79802979162196,0.32108230590820314,0.0844244384765625,-9.797126770019531,122.79058179166168,-0.0002517229877412319,0.0004977082135155797,0.00046735815703868866,122.79802979162196
2025-10-02 14:09:20.613162,0.2852192492410541,0.05661798616871238,-9.805688847899438,122.90727379161399,0.03271959353238344,0.03154866575729102,-0.0023646140098571777,122.90727379161399,0.31793884277343754,0.08816665649414063,-9.80805404663086,122.89982679166133,-0.0003332630731165409,-0.0019158567301928997,-0.0039173392578959465,122.90727379161399
